"subject","trial_number","Cross_position","Circle_1","Position_1","Color_1","Circle_2","Position_2","Color_2","Position_3","Color_3","Position_4","Color_4","p_confidence","response_color","response_time","angle_1","angle_2","angle_3","angle_4","angle_1_cue","angle_2_cue","angle_3_cue","angle_4_cue"
"32854859","0","0","0","0","0","0","0","0","0","0","0","0","0","-1","0","0","0","0","0","0","0","0","0"
"32854859","0","0","0","0","0","0","0","0","0","0","0","0","0","-1","0","0","0","0","0","0","0","0","0"
"32854859","0","0","0","0","0","0","0","0","0","0","0","0","0","-1","0","0","0","0","0","0","0","0","0"
"32854859","0","0","0","0","0","0","0","0","0","0","0","0","0","-1","0","0","0","0","0","0","0","0","0"
"32854859","0","0","0","0","0","0","0","0","0","0","0","0","0","-1","0","0","0","0","0","0","0","0","0"
"988074894","0","0","0","0","0","0","0","0","0","0","0","0","0","-1","0","0","0","0","0","0","0","0","0"
"988074894","0","0","0","0","0","0","0","0","0","0","0","0","0","-1","0","0","0","0","0","0","0","0","0"
"988074894","0","0","0","0","0","0","0","0","0","0","0","0","0","-1","0","0","0","0","0","0","0","0","0"
"988074894","0","0","0","0","0","0","0","0","0","0","0","0","0","-1","0","0","0","0","0","0","0","0","0"
"988074894","0","0","0","0","0","0","0","0","0","0","0","0","0","-1","0","0","0","0","0","0","0","0","0"
"988074894","0","0","0","0","0","0","0","0","0","0","0","0","0","-1","0","0","0","0","0","0","0","0","0"
"988074894","0","0","0","0","0","0","0","0","0","0","0","0","0","-1","0","0","0","0","0","0","0","0","0"
"988074894","0","0","0","0","0","0","0","0","0","0","0","0","7","8","1009","-110.122219261276129032","69.877780738723870968","-20.122219261276129032","159.8777807387238567571","-20.122219261276129032","159.8777807387238567571","69.877780738723870968","249.8777807387238567571"
"988074894","1","0","-1","59.807514874219776857","7","-1","239.807514874219776857","1","149.807514874219776857","3","329.8075148742198052787","2","5","8","42252","59.807514874219776857","239.807514874219776857","149.807514874219776857","329.8075148742198052787","149.807514874219776857","329.8075148742198052787","239.807514874219776857","419.8075148742198052787"
"988074894","1","0","-1","59.807514874219776857","7","-1","239.807514874219776857","1","149.807514874219776857","3","329.8075148742198052787","2","3","4","14200","59.807514874219776857","239.807514874219776857","149.807514874219776857","329.8075148742198052787","149.807514874219776857","329.8075148742198052787","239.807514874219776857","419.8075148742198052787"
"988074894","1","0","-1","59.807514874219776857","7","-1","239.807514874219776857","1","149.807514874219776857","3","329.8075148742198052787","2","7","5","3752","59.807514874219776857","239.807514874219776857","149.807514874219776857","329.8075148742198052787","149.807514874219776857","329.8075148742198052787","239.807514874219776857","419.8075148742198052787"
"988074894","1","0","-1","59.807514874219776857","7","-1","239.807514874219776857","1","149.807514874219776857","3","329.8075148742198052787","2","1","1","5015","59.807514874219776857","239.807514874219776857","149.807514874219776857","329.8075148742198052787","149.807514874219776857","329.8075148742198052787","239.807514874219776857","419.8075148742198052787"
"988074894","1","0","-1","59.807514874219776857","7","-1","239.807514874219776857","1","149.807514874219776857","3","329.8075148742198052787","2","0","7","3697","59.807514874219776857","239.807514874219776857","149.807514874219776857","329.8075148742198052787","149.807514874219776857","329.8075148742198052787","239.807514874219776857","419.8075148742198052787"
"988074894","1","0","-1","59.807514874219776857","7","-1","239.807514874219776857","1","149.807514874219776857","3","329.8075148742198052787","2","2","6","3576","59.807514874219776857","239.807514874219776857","149.807514874219776857","329.8075148742198052787","149.807514874219776857","329.8075148742198052787","239.807514874219776857","419.8075148742198052787"
"988074894","1","0","-1","59.807514874219776857","7","-1","239.807514874219776857","1","149.807514874219776857","3","329.8075148742198052787","2","4","9","2921","59.807514874219776857","239.807514874219776857","149.807514874219776857","329.8075148742198052787","149.807514874219776857","329.8075148742198052787","239.807514874219776857","419.8075148742198052787"
"988074894","1","0","-1","59.807514874219776857","7","-1","239.807514874219776857","1","149.807514874219776857","3","329.8075148742198052787","2","0","2","3732","59.807514874219776857","239.807514874219776857","149.807514874219776857","329.8075148742198052787","149.807514874219776857","329.8075148742198052787","239.807514874219776857","419.8075148742198052787"
"988074894","1","0","-1","59.807514874219776857","7","-1","239.807514874219776857","1","149.807514874219776857","3","329.8075148742198052787","2","3","3","17235","59.807514874219776857","239.807514874219776857","149.807514874219776857","329.8075148742198052787","149.807514874219776857","329.8075148742198052787","239.807514874219776857","419.8075148742198052787"
"988074894","2","0","-1","-118.1326313731569399579","9","-1","61.8673686268430600421","5","-28.1326313731569399579","9","151.867368626843074253","9","5","8","4376","-118.1326313731569399579","61.8673686268430600421","-28.1326313731569399579","151.867368626843074253","-28.1326313731569399579","151.867368626843074253","61.8673686268430600421","241.867368626843074253"
"988074894","2","0","-1","-118.1326313731569399579","9","-1","61.8673686268430600421","5","-28.1326313731569399579","9","151.867368626843074253","9","2","9","1026","-118.1326313731569399579","61.8673686268430600421","-28.1326313731569399579","151.867368626843074253","-28.1326313731569399579","151.867368626843074253","61.8673686268430600421","241.867368626843074253"
"988074894","2","0","-1","-118.1326313731569399579","9","-1","61.8673686268430600421","5","-28.1326313731569399579","9","151.867368626843074253","9","6","1","929","-118.1326313731569399579","61.8673686268430600421","-28.1326313731569399579","151.867368626843074253","-28.1326313731569399579","151.867368626843074253","61.8673686268430600421","241.867368626843074253"
"988074894","2","0","-1","-118.1326313731569399579","9","-1","61.8673686268430600421","5","-28.1326313731569399579","9","151.867368626843074253","9","4","7","1455","-118.1326313731569399579","61.8673686268430600421","-28.1326313731569399579","151.867368626843074253","-28.1326313731569399579","151.867368626843074253","61.8673686268430600421","241.867368626843074253"
"988074894","2","0","-1","-118.1326313731569399579","9","-1","61.8673686268430600421","5","-28.1326313731569399579","9","151.867368626843074253","9","4","6","7009","-118.1326313731569399579","61.8673686268430600421","-28.1326313731569399579","151.867368626843074253","-28.1326313731569399579","151.867368626843074253","61.8673686268430600421","241.867368626843074253"
"988074894","2","0","-1","-118.1326313731569399579","9","-1","61.8673686268430600421","5","-28.1326313731569399579","9","151.867368626843074253","9","6","3","906","-118.1326313731569399579","61.8673686268430600421","-28.1326313731569399579","151.867368626843074253","-28.1326313731569399579","151.867368626843074253","61.8673686268430600421","241.867368626843074253"
"988074894","2","0","-1","-118.1326313731569399579","9","-1","61.8673686268430600421","5","-28.1326313731569399579","9","151.867368626843074253","9","5","5","1113","-118.1326313731569399579","61.8673686268430600421","-28.1326313731569399579","151.867368626843074253","-28.1326313731569399579","151.867368626843074253","61.8673686268430600421","241.867368626843074253"
"988074894","2","0","-1","-118.1326313731569399579","9","-1","61.8673686268430600421","5","-28.1326313731569399579","9","151.867368626843074253","9","5","2","1290","-118.1326313731569399579","61.8673686268430600421","-28.1326313731569399579","151.867368626843074253","-28.1326313731569399579","151.867368626843074253","61.8673686268430600421","241.867368626843074253"
"988074894","2","0","-1","-118.1326313731569399579","9","-1","61.8673686268430600421","5","-28.1326313731569399579","9","151.867368626843074253","9","3","4","836","-118.1326313731569399579","61.8673686268430600421","-28.1326313731569399579","151.867368626843074253","-28.1326313731569399579","151.867368626843074253","61.8673686268430600421","241.867368626843074253"
"988074894","3","0","1","35.1056645100716480101","1","1","215.1056645100716480101","7","125.1056645100716480101","5","305.1056645100716195884","1","0","1","1696","35.1056645100716480101","215.1056645100716480101","125.1056645100716480101","305.1056645100716195884","125.1056645100716480101","305.1056645100716195884","215.1056645100716480101","395.1056645100716195884"
"988074894","3","0","1","35.1056645100716480101","1","1","215.1056645100716480101","7","125.1056645100716480101","5","305.1056645100716195884","1","4","3","4497","35.1056645100716480101","215.1056645100716480101","125.1056645100716480101","305.1056645100716195884","125.1056645100716480101","305.1056645100716195884","215.1056645100716480101","395.1056645100716195884"
"988074894","3","0","1","35.1056645100716480101","1","1","215.1056645100716480101","7","125.1056645100716480101","5","305.1056645100716195884","1","3","7","2548","35.1056645100716480101","215.1056645100716480101","125.1056645100716480101","305.1056645100716195884","125.1056645100716480101","305.1056645100716195884","215.1056645100716480101","395.1056645100716195884"
"988074894","3","0","1","35.1056645100716480101","1","1","215.1056645100716480101","7","125.1056645100716480101","5","305.1056645100716195884","1","5","2","3601","35.1056645100716480101","215.1056645100716480101","125.1056645100716480101","305.1056645100716195884","125.1056645100716480101","305.1056645100716195884","215.1056645100716480101","395.1056645100716195884"
"988074894","3","0","1","35.1056645100716480101","1","1","215.1056645100716480101","7","125.1056645100716480101","5","305.1056645100716195884","1","1","6","859","35.1056645100716480101","215.1056645100716480101","125.1056645100716480101","305.1056645100716195884","125.1056645100716480101","305.1056645100716195884","215.1056645100716480101","395.1056645100716195884"
"988074894","3","0","1","35.1056645100716480101","1","1","215.1056645100716480101","7","125.1056645100716480101","5","305.1056645100716195884","1","3","4","31586","35.1056645100716480101","215.1056645100716480101","125.1056645100716480101","305.1056645100716195884","125.1056645100716480101","305.1056645100716195884","215.1056645100716480101","395.1056645100716195884"
"988074894","3","0","1","35.1056645100716480101","1","1","215.1056645100716480101","7","125.1056645100716480101","5","305.1056645100716195884","1","6","5","956","35.1056645100716480101","215.1056645100716480101","125.1056645100716480101","305.1056645100716195884","125.1056645100716480101","305.1056645100716195884","215.1056645100716480101","395.1056645100716195884"
"988074894","3","0","1","35.1056645100716480101","1","1","215.1056645100716480101","7","125.1056645100716480101","5","305.1056645100716195884","1","6","8","1744","35.1056645100716480101","215.1056645100716480101","125.1056645100716480101","305.1056645100716195884","125.1056645100716480101","305.1056645100716195884","215.1056645100716480101","395.1056645100716195884"
"988074894","3","0","1","35.1056645100716480101","1","1","215.1056645100716480101","7","125.1056645100716480101","5","305.1056645100716195884","1","5","9","1197","35.1056645100716480101","215.1056645100716480101","125.1056645100716480101","305.1056645100716195884","125.1056645100716480101","305.1056645100716195884","215.1056645100716480101","395.1056645100716195884"
"988074894","4","0","1","147.3240841383403108011","2","1","327.3240841383403108011","6","237.3240841383403108011","4","417.3240841383403108011","7","6","5","3002","147.3240841383403108011","327.3240841383403108011","237.3240841383403108011","417.3240841383403108011","237.3240841383403108011","417.3240841383403108011","327.3240841383403108011","507.3240841383403108011"
"988074894","4","0","1","147.3240841383403108011","2","1","327.3240841383403108011","6","237.3240841383403108011","4","417.3240841383403108011","7","4","7","854","147.3240841383403108011","327.3240841383403108011","237.3240841383403108011","417.3240841383403108011","237.3240841383403108011","417.3240841383403108011","327.3240841383403108011","507.3240841383403108011"
"988074894","4","0","1","147.3240841383403108011","2","1","327.3240841383403108011","6","237.3240841383403108011","4","417.3240841383403108011","7","2","9","878","147.3240841383403108011","327.3240841383403108011","237.3240841383403108011","417.3240841383403108011","237.3240841383403108011","417.3240841383403108011","327.3240841383403108011","507.3240841383403108011"
"988074894","4","0","1","147.3240841383403108011","2","1","327.3240841383403108011","6","237.3240841383403108011","4","417.3240841383403108011","7","3","1","1285","147.3240841383403108011","327.3240841383403108011","237.3240841383403108011","417.3240841383403108011","237.3240841383403108011","417.3240841383403108011","327.3240841383403108011","507.3240841383403108011"
"988074894","4","0","1","147.3240841383403108011","2","1","327.3240841383403108011","6","237.3240841383403108011","4","417.3240841383403108011","7","6","6","1671","147.3240841383403108011","327.3240841383403108011","237.3240841383403108011","417.3240841383403108011","237.3240841383403108011","417.3240841383403108011","327.3240841383403108011","507.3240841383403108011"
"988074894","4","0","1","147.3240841383403108011","2","1","327.3240841383403108011","6","237.3240841383403108011","4","417.3240841383403108011","7","2","8","1033","147.3240841383403108011","327.3240841383403108011","237.3240841383403108011","417.3240841383403108011","237.3240841383403108011","417.3240841383403108011","327.3240841383403108011","507.3240841383403108011"
"988074894","4","0","1","147.3240841383403108011","2","1","327.3240841383403108011","6","237.3240841383403108011","4","417.3240841383403108011","7","3","2","1034","147.3240841383403108011","327.3240841383403108011","237.3240841383403108011","417.3240841383403108011","237.3240841383403108011","417.3240841383403108011","327.3240841383403108011","507.3240841383403108011"
"988074894","4","0","1","147.3240841383403108011","2","1","327.3240841383403108011","6","237.3240841383403108011","4","417.3240841383403108011","7","4","4","1068","147.3240841383403108011","327.3240841383403108011","237.3240841383403108011","417.3240841383403108011","237.3240841383403108011","417.3240841383403108011","327.3240841383403108011","507.3240841383403108011"
"988074894","4","0","1","147.3240841383403108011","2","1","327.3240841383403108011","6","237.3240841383403108011","4","417.3240841383403108011","7","3","3","655","147.3240841383403108011","327.3240841383403108011","237.3240841383403108011","417.3240841383403108011","237.3240841383403108011","417.3240841383403108011","327.3240841383403108011","507.3240841383403108011"
"988074894","5","0","-1","95.9579450162029843341","5","-1","275.9579450162029843341","4","185.9579450162029843341","4","365.9579450162029843341","8","0","3","2584","95.9579450162029843341","275.9579450162029843341","185.9579450162029843341","365.9579450162029843341","185.9579450162029843341","365.9579450162029843341","275.9579450162029843341","455.9579450162029843341"
"988074894","5","0","-1","95.9579450162029843341","5","-1","275.9579450162029843341","4","185.9579450162029843341","4","365.9579450162029843341","8","3","5","964","95.9579450162029843341","275.9579450162029843341","185.9579450162029843341","365.9579450162029843341","185.9579450162029843341","365.9579450162029843341","275.9579450162029843341","455.9579450162029843341"
"988074894","5","0","-1","95.9579450162029843341","5","-1","275.9579450162029843341","4","185.9579450162029843341","4","365.9579450162029843341","8","4","2","1152","95.9579450162029843341","275.9579450162029843341","185.9579450162029843341","365.9579450162029843341","185.9579450162029843341","365.9579450162029843341","275.9579450162029843341","455.9579450162029843341"
"988074894","5","0","-1","95.9579450162029843341","5","-1","275.9579450162029843341","4","185.9579450162029843341","4","365.9579450162029843341","8","3","7","838","95.9579450162029843341","275.9579450162029843341","185.9579450162029843341","365.9579450162029843341","185.9579450162029843341","365.9579450162029843341","275.9579450162029843341","455.9579450162029843341"
"988074894","5","0","-1","95.9579450162029843341","5","-1","275.9579450162029843341","4","185.9579450162029843341","4","365.9579450162029843341","8","4","9","1530","95.9579450162029843341","275.9579450162029843341","185.9579450162029843341","365.9579450162029843341","185.9579450162029843341","365.9579450162029843341","275.9579450162029843341","455.9579450162029843341"
"988074894","5","0","-1","95.9579450162029843341","5","-1","275.9579450162029843341","4","185.9579450162029843341","4","365.9579450162029843341","8","5","1","2034","95.9579450162029843341","275.9579450162029843341","185.9579450162029843341","365.9579450162029843341","185.9579450162029843341","365.9579450162029843341","275.9579450162029843341","455.9579450162029843341"
"988074894","5","0","-1","95.9579450162029843341","5","-1","275.9579450162029843341","4","185.9579450162029843341","4","365.9579450162029843341","8","6","6","750","95.9579450162029843341","275.9579450162029843341","185.9579450162029843341","365.9579450162029843341","185.9579450162029843341","365.9579450162029843341","275.9579450162029843341","455.9579450162029843341"
"988074894","5","0","-1","95.9579450162029843341","5","-1","275.9579450162029843341","4","185.9579450162029843341","4","365.9579450162029843341","8","3","4","773","95.9579450162029843341","275.9579450162029843341","185.9579450162029843341","365.9579450162029843341","185.9579450162029843341","365.9579450162029843341","275.9579450162029843341","455.9579450162029843341"
"988074894","5","0","-1","95.9579450162029843341","5","-1","275.9579450162029843341","4","185.9579450162029843341","4","365.9579450162029843341","8","2","8","1528","95.9579450162029843341","275.9579450162029843341","185.9579450162029843341","365.9579450162029843341","185.9579450162029843341","365.9579450162029843341","275.9579450162029843341","455.9579450162029843341"
"988074894","6","0","-1","38.9959861475499280914","6","-1","218.9959861475499280914","9","128.9959861475499280914","5","308.9959861475499565131","8","5","1","1355","38.9959861475499280914","218.9959861475499280914","128.9959861475499280914","308.9959861475499565131","128.9959861475499280914","308.9959861475499565131","218.9959861475499280914","398.9959861475499565131"
"988074894","6","0","-1","38.9959861475499280914","6","-1","218.9959861475499280914","9","128.9959861475499280914","5","308.9959861475499565131","8","3","9","1265","38.9959861475499280914","218.9959861475499280914","128.9959861475499280914","308.9959861475499565131","128.9959861475499280914","308.9959861475499565131","218.9959861475499280914","398.9959861475499565131"
"988074894","6","0","-1","38.9959861475499280914","6","-1","218.9959861475499280914","9","128.9959861475499280914","5","308.9959861475499565131","8","6","7","964","38.9959861475499280914","218.9959861475499280914","128.9959861475499280914","308.9959861475499565131","128.9959861475499280914","308.9959861475499565131","218.9959861475499280914","398.9959861475499565131"
"988074894","6","0","-1","38.9959861475499280914","6","-1","218.9959861475499280914","9","128.9959861475499280914","5","308.9959861475499565131","8","7","3","1437","38.9959861475499280914","218.9959861475499280914","128.9959861475499280914","308.9959861475499565131","128.9959861475499280914","308.9959861475499565131","218.9959861475499280914","398.9959861475499565131"
"988074894","6","0","-1","38.9959861475499280914","6","-1","218.9959861475499280914","9","128.9959861475499280914","5","308.9959861475499565131","8","2","8","863","38.9959861475499280914","218.9959861475499280914","128.9959861475499280914","308.9959861475499565131","128.9959861475499280914","308.9959861475499565131","218.9959861475499280914","398.9959861475499565131"
"988074894","6","0","-1","38.9959861475499280914","6","-1","218.9959861475499280914","9","128.9959861475499280914","5","308.9959861475499565131","8","4","5","1011","38.9959861475499280914","218.9959861475499280914","128.9959861475499280914","308.9959861475499565131","128.9959861475499280914","308.9959861475499565131","218.9959861475499280914","398.9959861475499565131"
"988074894","6","0","-1","38.9959861475499280914","6","-1","218.9959861475499280914","9","128.9959861475499280914","5","308.9959861475499565131","8","5","4","1094","38.9959861475499280914","218.9959861475499280914","128.9959861475499280914","308.9959861475499565131","128.9959861475499280914","308.9959861475499565131","218.9959861475499280914","398.9959861475499565131"
"988074894","6","0","-1","38.9959861475499280914","6","-1","218.9959861475499280914","9","128.9959861475499280914","5","308.9959861475499565131","8","4","2","2630","38.9959861475499280914","218.9959861475499280914","128.9959861475499280914","308.9959861475499565131","128.9959861475499280914","308.9959861475499565131","218.9959861475499280914","398.9959861475499565131"
"988074894","6","0","-1","38.9959861475499280914","6","-1","218.9959861475499280914","9","128.9959861475499280914","5","308.9959861475499565131","8","6","6","1066","38.9959861475499280914","218.9959861475499280914","128.9959861475499280914","308.9959861475499565131","128.9959861475499280914","308.9959861475499565131","218.9959861475499280914","398.9959861475499565131"
"988074894","7","0","1","164.760914981542384794","7","1","344.760914981542384794","7","254.760914981542384794","8","434.760914981542384794","4","0","7","1590","164.760914981542384794","344.760914981542384794","254.760914981542384794","434.760914981542384794","254.760914981542384794","434.760914981542384794","344.760914981542384794","524.7609149815423279506"
"988074894","7","0","1","164.760914981542384794","7","1","344.760914981542384794","7","254.760914981542384794","8","434.760914981542384794","4","3","5","1318","164.760914981542384794","344.760914981542384794","254.760914981542384794","434.760914981542384794","254.760914981542384794","434.760914981542384794","344.760914981542384794","524.7609149815423279506"
"988074894","7","0","1","164.760914981542384794","7","1","344.760914981542384794","7","254.760914981542384794","8","434.760914981542384794","4","1","6","1413","164.760914981542384794","344.760914981542384794","254.760914981542384794","434.760914981542384794","254.760914981542384794","434.760914981542384794","344.760914981542384794","524.7609149815423279506"
"988074894","7","0","1","164.760914981542384794","7","1","344.760914981542384794","7","254.760914981542384794","8","434.760914981542384794","4","6","1","1167","164.760914981542384794","344.760914981542384794","254.760914981542384794","434.760914981542384794","254.760914981542384794","434.760914981542384794","344.760914981542384794","524.7609149815423279506"
"988074894","7","0","1","164.760914981542384794","7","1","344.760914981542384794","7","254.760914981542384794","8","434.760914981542384794","4","7","8","1332","164.760914981542384794","344.760914981542384794","254.760914981542384794","434.760914981542384794","254.760914981542384794","434.760914981542384794","344.760914981542384794","524.7609149815423279506"
"988074894","7","0","1","164.760914981542384794","7","1","344.760914981542384794","7","254.760914981542384794","8","434.760914981542384794","4","6","2","915","164.760914981542384794","344.760914981542384794","254.760914981542384794","434.760914981542384794","254.760914981542384794","434.760914981542384794","344.760914981542384794","524.7609149815423279506"
"988074894","7","0","1","164.760914981542384794","7","1","344.760914981542384794","7","254.760914981542384794","8","434.760914981542384794","4","3","3","1029","164.760914981542384794","344.760914981542384794","254.760914981542384794","434.760914981542384794","254.760914981542384794","434.760914981542384794","344.760914981542384794","524.7609149815423279506"
"988074894","7","0","1","164.760914981542384794","7","1","344.760914981542384794","7","254.760914981542384794","8","434.760914981542384794","4","1","4","801","164.760914981542384794","344.760914981542384794","254.760914981542384794","434.760914981542384794","254.760914981542384794","434.760914981542384794","344.760914981542384794","524.7609149815423279506"
"988074894","7","0","1","164.760914981542384794","7","1","344.760914981542384794","7","254.760914981542384794","8","434.760914981542384794","4","2","9","1261","164.760914981542384794","344.760914981542384794","254.760914981542384794","434.760914981542384794","254.760914981542384794","434.760914981542384794","344.760914981542384794","524.7609149815423279506"
"988074894","8","0","-1","-172.644803019390622012","2","-1","7.355196980609377988","5","-82.644803019390622012","7","97.355196980609377988","2","7","6","1345","-172.644803019390622012","7.355196980609377988","-82.644803019390622012","97.355196980609377988","-82.644803019390622012","97.355196980609377988","7.355196980609377988","187.355196980609377988"
"988074894","8","0","-1","-172.644803019390622012","2","-1","7.355196980609377988","5","-82.644803019390622012","7","97.355196980609377988","2","6","3","1048","-172.644803019390622012","7.355196980609377988","-82.644803019390622012","97.355196980609377988","-82.644803019390622012","97.355196980609377988","7.355196980609377988","187.355196980609377988"
"988074894","8","0","-1","-172.644803019390622012","2","-1","7.355196980609377988","5","-82.644803019390622012","7","97.355196980609377988","2","4","2","673","-172.644803019390622012","7.355196980609377988","-82.644803019390622012","97.355196980609377988","-82.644803019390622012","97.355196980609377988","7.355196980609377988","187.355196980609377988"
"988074894","8","0","-1","-172.644803019390622012","2","-1","7.355196980609377988","5","-82.644803019390622012","7","97.355196980609377988","2","3","7","790","-172.644803019390622012","7.355196980609377988","-82.644803019390622012","97.355196980609377988","-82.644803019390622012","97.355196980609377988","7.355196980609377988","187.355196980609377988"
"988074894","8","0","-1","-172.644803019390622012","2","-1","7.355196980609377988","5","-82.644803019390622012","7","97.355196980609377988","2","6","5","950","-172.644803019390622012","7.355196980609377988","-82.644803019390622012","97.355196980609377988","-82.644803019390622012","97.355196980609377988","7.355196980609377988","187.355196980609377988"
"988074894","8","0","-1","-172.644803019390622012","2","-1","7.355196980609377988","5","-82.644803019390622012","7","97.355196980609377988","2","5","8","1311","-172.644803019390622012","7.355196980609377988","-82.644803019390622012","97.355196980609377988","-82.644803019390622012","97.355196980609377988","7.355196980609377988","187.355196980609377988"
"988074894","8","0","-1","-172.644803019390622012","2","-1","7.355196980609377988","5","-82.644803019390622012","7","97.355196980609377988","2","2","4","1926","-172.644803019390622012","7.355196980609377988","-82.644803019390622012","97.355196980609377988","-82.644803019390622012","97.355196980609377988","7.355196980609377988","187.355196980609377988"
"988074894","8","0","-1","-172.644803019390622012","2","-1","7.355196980609377988","5","-82.644803019390622012","7","97.355196980609377988","2","1","1","2078","-172.644803019390622012","7.355196980609377988","-82.644803019390622012","97.355196980609377988","-82.644803019390622012","97.355196980609377988","7.355196980609377988","187.355196980609377988"
"988074894","8","0","-1","-172.644803019390622012","2","-1","7.355196980609377988","5","-82.644803019390622012","7","97.355196980609377988","2","6","9","1100","-172.644803019390622012","7.355196980609377988","-82.644803019390622012","97.355196980609377988","-82.644803019390622012","97.355196980609377988","7.355196980609377988","187.355196980609377988"
"988074894","9","0","-1","-122.7992495109325403746","8","-1","57.2007504890674596254","1","-32.7992495109325403746","1","147.2007504890674454145","2","0","8","1017","-122.7992495109325403746","57.2007504890674596254","-32.7992495109325403746","147.2007504890674454145","-32.7992495109325403746","147.2007504890674454145","57.2007504890674596254","237.2007504890674454145"
"988074894","9","0","-1","-122.7992495109325403746","8","-1","57.2007504890674596254","1","-32.7992495109325403746","1","147.2007504890674454145","2","6","2","1052","-122.7992495109325403746","57.2007504890674596254","-32.7992495109325403746","147.2007504890674454145","-32.7992495109325403746","147.2007504890674454145","57.2007504890674596254","237.2007504890674454145"
"988074894","9","0","-1","-122.7992495109325403746","8","-1","57.2007504890674596254","1","-32.7992495109325403746","1","147.2007504890674454145","2","6","4","905","-122.7992495109325403746","57.2007504890674596254","-32.7992495109325403746","147.2007504890674454145","-32.7992495109325403746","147.2007504890674454145","57.2007504890674596254","237.2007504890674454145"
"988074894","9","0","-1","-122.7992495109325403746","8","-1","57.2007504890674596254","1","-32.7992495109325403746","1","147.2007504890674454145","2","7","6","1283","-122.7992495109325403746","57.2007504890674596254","-32.7992495109325403746","147.2007504890674454145","-32.7992495109325403746","147.2007504890674454145","57.2007504890674596254","237.2007504890674454145"
"988074894","9","0","-1","-122.7992495109325403746","8","-1","57.2007504890674596254","1","-32.7992495109325403746","1","147.2007504890674454145","2","0","1","907","-122.7992495109325403746","57.2007504890674596254","-32.7992495109325403746","147.2007504890674454145","-32.7992495109325403746","147.2007504890674454145","57.2007504890674596254","237.2007504890674454145"
"988074894","9","0","-1","-122.7992495109325403746","8","-1","57.2007504890674596254","1","-32.7992495109325403746","1","147.2007504890674454145","2","3","9","1253","-122.7992495109325403746","57.2007504890674596254","-32.7992495109325403746","147.2007504890674454145","-32.7992495109325403746","147.2007504890674454145","57.2007504890674596254","237.2007504890674454145"
"988074894","9","0","-1","-122.7992495109325403746","8","-1","57.2007504890674596254","1","-32.7992495109325403746","1","147.2007504890674454145","2","5","7","1529","-122.7992495109325403746","57.2007504890674596254","-32.7992495109325403746","147.2007504890674454145","-32.7992495109325403746","147.2007504890674454145","57.2007504890674596254","237.2007504890674454145"
"988074894","9","0","-1","-122.7992495109325403746","8","-1","57.2007504890674596254","1","-32.7992495109325403746","1","147.2007504890674454145","2","6","5","1043","-122.7992495109325403746","57.2007504890674596254","-32.7992495109325403746","147.2007504890674454145","-32.7992495109325403746","147.2007504890674454145","57.2007504890674596254","237.2007504890674454145"
"988074894","9","0","-1","-122.7992495109325403746","8","-1","57.2007504890674596254","1","-32.7992495109325403746","1","147.2007504890674454145","2","6","3","806","-122.7992495109325403746","57.2007504890674596254","-32.7992495109325403746","147.2007504890674454145","-32.7992495109325403746","147.2007504890674454145","57.2007504890674596254","237.2007504890674454145"
"988074894","10","0","1","42.8253199678904934444","8","1","222.8253199678904934444","3","132.8253199678904934444","7","312.8253199678904934444","8","6","2","1448","42.8253199678904934444","222.8253199678904934444","132.8253199678904934444","312.8253199678904934444","132.8253199678904934444","312.8253199678904934444","222.8253199678904934444","402.8253199678904934444"
"988074894","10","0","1","42.8253199678904934444","8","1","222.8253199678904934444","3","132.8253199678904934444","7","312.8253199678904934444","8","5","8","942","42.8253199678904934444","222.8253199678904934444","132.8253199678904934444","312.8253199678904934444","132.8253199678904934444","312.8253199678904934444","222.8253199678904934444","402.8253199678904934444"
"988074894","10","0","1","42.8253199678904934444","8","1","222.8253199678904934444","3","132.8253199678904934444","7","312.8253199678904934444","8","6","4","1557","42.8253199678904934444","222.8253199678904934444","132.8253199678904934444","312.8253199678904934444","132.8253199678904934444","312.8253199678904934444","222.8253199678904934444","402.8253199678904934444"
"988074894","10","0","1","42.8253199678904934444","8","1","222.8253199678904934444","3","132.8253199678904934444","7","312.8253199678904934444","8","6","1","1153","42.8253199678904934444","222.8253199678904934444","132.8253199678904934444","312.8253199678904934444","132.8253199678904934444","312.8253199678904934444","222.8253199678904934444","402.8253199678904934444"
"988074894","10","0","1","42.8253199678904934444","8","1","222.8253199678904934444","3","132.8253199678904934444","7","312.8253199678904934444","8","5","6","474","42.8253199678904934444","222.8253199678904934444","132.8253199678904934444","312.8253199678904934444","132.8253199678904934444","312.8253199678904934444","222.8253199678904934444","402.8253199678904934444"
"988074894","10","0","1","42.8253199678904934444","8","1","222.8253199678904934444","3","132.8253199678904934444","7","312.8253199678904934444","8","4","9","769","42.8253199678904934444","222.8253199678904934444","132.8253199678904934444","312.8253199678904934444","132.8253199678904934444","312.8253199678904934444","222.8253199678904934444","402.8253199678904934444"
"988074894","10","0","1","42.8253199678904934444","8","1","222.8253199678904934444","3","132.8253199678904934444","7","312.8253199678904934444","8","5","3","827","42.8253199678904934444","222.8253199678904934444","132.8253199678904934444","312.8253199678904934444","132.8253199678904934444","312.8253199678904934444","222.8253199678904934444","402.8253199678904934444"
"988074894","10","0","1","42.8253199678904934444","8","1","222.8253199678904934444","3","132.8253199678904934444","7","312.8253199678904934444","8","5","5","570","42.8253199678904934444","222.8253199678904934444","132.8253199678904934444","312.8253199678904934444","132.8253199678904934444","312.8253199678904934444","222.8253199678904934444","402.8253199678904934444"
"988074894","10","0","1","42.8253199678904934444","8","1","222.8253199678904934444","3","132.8253199678904934444","7","312.8253199678904934444","8","4","7","416","42.8253199678904934444","222.8253199678904934444","132.8253199678904934444","312.8253199678904934444","132.8253199678904934444","312.8253199678904934444","222.8253199678904934444","402.8253199678904934444"
"988074894","11","0","1","144.3872616543404774347","6","1","324.3872616543404774347","7","234.3872616543404774347","4","414.3872616543404774347","3","5","1","4167","144.3872616543404774347","324.3872616543404774347","234.3872616543404774347","414.3872616543404774347","234.3872616543404774347","414.3872616543404774347","324.3872616543404774347","504.3872616543404774347"
"988074894","11","0","1","144.3872616543404774347","6","1","324.3872616543404774347","7","234.3872616543404774347","4","414.3872616543404774347","3","5","9","1880","144.3872616543404774347","324.3872616543404774347","234.3872616543404774347","414.3872616543404774347","234.3872616543404774347","414.3872616543404774347","324.3872616543404774347","504.3872616543404774347"
"988074894","11","0","1","144.3872616543404774347","6","1","324.3872616543404774347","7","234.3872616543404774347","4","414.3872616543404774347","3","1","7","1408","144.3872616543404774347","324.3872616543404774347","234.3872616543404774347","414.3872616543404774347","234.3872616543404774347","414.3872616543404774347","324.3872616543404774347","504.3872616543404774347"
"988074894","11","0","1","144.3872616543404774347","6","1","324.3872616543404774347","7","234.3872616543404774347","4","414.3872616543404774347","3","6","2","1329","144.3872616543404774347","324.3872616543404774347","234.3872616543404774347","414.3872616543404774347","234.3872616543404774347","414.3872616543404774347","324.3872616543404774347","504.3872616543404774347"
"988074894","11","0","1","144.3872616543404774347","6","1","324.3872616543404774347","7","234.3872616543404774347","4","414.3872616543404774347","3","4","3","894","144.3872616543404774347","324.3872616543404774347","234.3872616543404774347","414.3872616543404774347","234.3872616543404774347","414.3872616543404774347","324.3872616543404774347","504.3872616543404774347"
"988074894","11","0","1","144.3872616543404774347","6","1","324.3872616543404774347","7","234.3872616543404774347","4","414.3872616543404774347","3","6","6","912","144.3872616543404774347","324.3872616543404774347","234.3872616543404774347","414.3872616543404774347","234.3872616543404774347","414.3872616543404774347","324.3872616543404774347","504.3872616543404774347"
"988074894","11","0","1","144.3872616543404774347","6","1","324.3872616543404774347","7","234.3872616543404774347","4","414.3872616543404774347","3","7","8","1070","144.3872616543404774347","324.3872616543404774347","234.3872616543404774347","414.3872616543404774347","234.3872616543404774347","414.3872616543404774347","324.3872616543404774347","504.3872616543404774347"
"988074894","11","0","1","144.3872616543404774347","6","1","324.3872616543404774347","7","234.3872616543404774347","4","414.3872616543404774347","3","5","5","660","144.3872616543404774347","324.3872616543404774347","234.3872616543404774347","414.3872616543404774347","234.3872616543404774347","414.3872616543404774347","324.3872616543404774347","504.3872616543404774347"
"988074894","11","0","1","144.3872616543404774347","6","1","324.3872616543404774347","7","234.3872616543404774347","4","414.3872616543404774347","3","4","4","656","144.3872616543404774347","324.3872616543404774347","234.3872616543404774347","414.3872616543404774347","234.3872616543404774347","414.3872616543404774347","324.3872616543404774347","504.3872616543404774347"
"988074894","12","0","1","102.3357168683632494322","3","1","282.3357168683632494322","2","192.3357168683632494322","9","372.3357168683632494322","3","1","3","1838","102.3357168683632494322","282.3357168683632494322","192.3357168683632494322","372.3357168683632494322","192.3357168683632494322","372.3357168683632494322","282.3357168683632494322","462.3357168683632494322"
"988074894","12","0","1","102.3357168683632494322","3","1","282.3357168683632494322","2","192.3357168683632494322","9","372.3357168683632494322","3","6","9","682","102.3357168683632494322","282.3357168683632494322","192.3357168683632494322","372.3357168683632494322","192.3357168683632494322","372.3357168683632494322","282.3357168683632494322","462.3357168683632494322"
"988074894","12","0","1","102.3357168683632494322","3","1","282.3357168683632494322","2","192.3357168683632494322","9","372.3357168683632494322","3","7","5","926","102.3357168683632494322","282.3357168683632494322","192.3357168683632494322","372.3357168683632494322","192.3357168683632494322","372.3357168683632494322","282.3357168683632494322","462.3357168683632494322"
"988074894","12","0","1","102.3357168683632494322","3","1","282.3357168683632494322","2","192.3357168683632494322","9","372.3357168683632494322","3","6","6","790","102.3357168683632494322","282.3357168683632494322","192.3357168683632494322","372.3357168683632494322","192.3357168683632494322","372.3357168683632494322","282.3357168683632494322","462.3357168683632494322"
"988074894","12","0","1","102.3357168683632494322","3","1","282.3357168683632494322","2","192.3357168683632494322","9","372.3357168683632494322","3","7","8","748","102.3357168683632494322","282.3357168683632494322","192.3357168683632494322","372.3357168683632494322","192.3357168683632494322","372.3357168683632494322","282.3357168683632494322","462.3357168683632494322"
"988074894","12","0","1","102.3357168683632494322","3","1","282.3357168683632494322","2","192.3357168683632494322","9","372.3357168683632494322","3","6","4","627","102.3357168683632494322","282.3357168683632494322","192.3357168683632494322","372.3357168683632494322","192.3357168683632494322","372.3357168683632494322","282.3357168683632494322","462.3357168683632494322"
"988074894","12","0","1","102.3357168683632494322","3","1","282.3357168683632494322","2","192.3357168683632494322","9","372.3357168683632494322","3","4","7","626","102.3357168683632494322","282.3357168683632494322","192.3357168683632494322","372.3357168683632494322","192.3357168683632494322","372.3357168683632494322","282.3357168683632494322","462.3357168683632494322"
"988074894","12","0","1","102.3357168683632494322","3","1","282.3357168683632494322","2","192.3357168683632494322","9","372.3357168683632494322","3","5","2","758","102.3357168683632494322","282.3357168683632494322","192.3357168683632494322","372.3357168683632494322","192.3357168683632494322","372.3357168683632494322","282.3357168683632494322","462.3357168683632494322"
"988074894","12","0","1","102.3357168683632494322","3","1","282.3357168683632494322","2","192.3357168683632494322","9","372.3357168683632494322","3","5","1","1038","102.3357168683632494322","282.3357168683632494322","192.3357168683632494322","372.3357168683632494322","192.3357168683632494322","372.3357168683632494322","282.3357168683632494322","462.3357168683632494322"
"988074894","13","0","-1","130.0097844819561032637","3","-1","310.0097844819561032637","8","220.0097844819561032637","1","400.0097844819561032637","9","6","1","1359","130.0097844819561032637","310.0097844819561032637","220.0097844819561032637","400.0097844819561032637","220.0097844819561032637","400.0097844819561032637","310.0097844819561032637","490.0097844819561032637"
"988074894","13","0","-1","130.0097844819561032637","3","-1","310.0097844819561032637","8","220.0097844819561032637","1","400.0097844819561032637","9","6","8","599","130.0097844819561032637","310.0097844819561032637","220.0097844819561032637","400.0097844819561032637","220.0097844819561032637","400.0097844819561032637","310.0097844819561032637","490.0097844819561032637"
"988074894","13","0","-1","130.0097844819561032637","3","-1","310.0097844819561032637","8","220.0097844819561032637","1","400.0097844819561032637","9","4","9","2863","130.0097844819561032637","310.0097844819561032637","220.0097844819561032637","400.0097844819561032637","220.0097844819561032637","400.0097844819561032637","310.0097844819561032637","490.0097844819561032637"
"988074894","13","0","-1","130.0097844819561032637","3","-1","310.0097844819561032637","8","220.0097844819561032637","1","400.0097844819561032637","9","4","7","918","130.0097844819561032637","310.0097844819561032637","220.0097844819561032637","400.0097844819561032637","220.0097844819561032637","400.0097844819561032637","310.0097844819561032637","490.0097844819561032637"
"988074894","13","0","-1","130.0097844819561032637","3","-1","310.0097844819561032637","8","220.0097844819561032637","1","400.0097844819561032637","9","6","6","1348","130.0097844819561032637","310.0097844819561032637","220.0097844819561032637","400.0097844819561032637","220.0097844819561032637","400.0097844819561032637","310.0097844819561032637","490.0097844819561032637"
"988074894","13","0","-1","130.0097844819561032637","3","-1","310.0097844819561032637","8","220.0097844819561032637","1","400.0097844819561032637","9","5","3","905","130.0097844819561032637","310.0097844819561032637","220.0097844819561032637","400.0097844819561032637","220.0097844819561032637","400.0097844819561032637","310.0097844819561032637","490.0097844819561032637"
"988074894","13","0","-1","130.0097844819561032637","3","-1","310.0097844819561032637","8","220.0097844819561032637","1","400.0097844819561032637","9","2","2","727","130.0097844819561032637","310.0097844819561032637","220.0097844819561032637","400.0097844819561032637","220.0097844819561032637","400.0097844819561032637","310.0097844819561032637","490.0097844819561032637"
"988074894","13","0","-1","130.0097844819561032637","3","-1","310.0097844819561032637","8","220.0097844819561032637","1","400.0097844819561032637","9","7","4","528","130.0097844819561032637","310.0097844819561032637","220.0097844819561032637","400.0097844819561032637","220.0097844819561032637","400.0097844819561032637","310.0097844819561032637","490.0097844819561032637"
"988074894","13","0","-1","130.0097844819561032637","3","-1","310.0097844819561032637","8","220.0097844819561032637","1","400.0097844819561032637","9","5","5","1265","130.0097844819561032637","310.0097844819561032637","220.0097844819561032637","400.0097844819561032637","220.0097844819561032637","400.0097844819561032637","310.0097844819561032637","490.0097844819561032637"
"988074894","14","0","1","157.0420216901791263808","5","1","337.0420216901791263808","3","247.0420216901791263808","4","427.0420216901791263808","7","0","4","1302","157.0420216901791263808","337.0420216901791263808","247.0420216901791263808","427.0420216901791263808","247.0420216901791263808","427.0420216901791263808","337.0420216901791263808","517.0420216901791263808"
"988074894","14","0","1","157.0420216901791263808","5","1","337.0420216901791263808","3","247.0420216901791263808","4","427.0420216901791263808","7","0","5","1047","157.0420216901791263808","337.0420216901791263808","247.0420216901791263808","427.0420216901791263808","247.0420216901791263808","427.0420216901791263808","337.0420216901791263808","517.0420216901791263808"
"988074894","14","0","1","157.0420216901791263808","5","1","337.0420216901791263808","3","247.0420216901791263808","4","427.0420216901791263808","7","6","7","948","157.0420216901791263808","337.0420216901791263808","247.0420216901791263808","427.0420216901791263808","247.0420216901791263808","427.0420216901791263808","337.0420216901791263808","517.0420216901791263808"
"988074894","14","0","1","157.0420216901791263808","5","1","337.0420216901791263808","3","247.0420216901791263808","4","427.0420216901791263808","7","6","1","692","157.0420216901791263808","337.0420216901791263808","247.0420216901791263808","427.0420216901791263808","247.0420216901791263808","427.0420216901791263808","337.0420216901791263808","517.0420216901791263808"
"988074894","14","0","1","157.0420216901791263808","5","1","337.0420216901791263808","3","247.0420216901791263808","4","427.0420216901791263808","7","1","3","990","157.0420216901791263808","337.0420216901791263808","247.0420216901791263808","427.0420216901791263808","247.0420216901791263808","427.0420216901791263808","337.0420216901791263808","517.0420216901791263808"
"988074894","14","0","1","157.0420216901791263808","5","1","337.0420216901791263808","3","247.0420216901791263808","4","427.0420216901791263808","7","3","2","1212","157.0420216901791263808","337.0420216901791263808","247.0420216901791263808","427.0420216901791263808","247.0420216901791263808","427.0420216901791263808","337.0420216901791263808","517.0420216901791263808"
"988074894","14","0","1","157.0420216901791263808","5","1","337.0420216901791263808","3","247.0420216901791263808","4","427.0420216901791263808","7","7","9","1346","157.0420216901791263808","337.0420216901791263808","247.0420216901791263808","427.0420216901791263808","247.0420216901791263808","427.0420216901791263808","337.0420216901791263808","517.0420216901791263808"
"988074894","14","0","1","157.0420216901791263808","5","1","337.0420216901791263808","3","247.0420216901791263808","4","427.0420216901791263808","7","6","6","1106","157.0420216901791263808","337.0420216901791263808","247.0420216901791263808","427.0420216901791263808","247.0420216901791263808","427.0420216901791263808","337.0420216901791263808","517.0420216901791263808"
"988074894","14","0","1","157.0420216901791263808","5","1","337.0420216901791263808","3","247.0420216901791263808","4","427.0420216901791263808","7","5","8","852","157.0420216901791263808","337.0420216901791263808","247.0420216901791263808","427.0420216901791263808","247.0420216901791263808","427.0420216901791263808","337.0420216901791263808","517.0420216901791263808"
"988074894","15","0","-1","138.4671722255803842927","4","-1","318.4671722255803842927","6","228.4671722255803842927","8","408.4671722255803842927","7","0","7","3011","138.4671722255803842927","318.4671722255803842927","228.4671722255803842927","408.4671722255803842927","228.4671722255803842927","408.4671722255803842927","318.4671722255803842927","498.4671722255803842927"
"988074894","15","0","-1","138.4671722255803842927","4","-1","318.4671722255803842927","6","228.4671722255803842927","8","408.4671722255803842927","7","7","8","1037","138.4671722255803842927","318.4671722255803842927","228.4671722255803842927","408.4671722255803842927","228.4671722255803842927","408.4671722255803842927","318.4671722255803842927","498.4671722255803842927"
"988074894","15","0","-1","138.4671722255803842927","4","-1","318.4671722255803842927","6","228.4671722255803842927","8","408.4671722255803842927","7","6","9","904","138.4671722255803842927","318.4671722255803842927","228.4671722255803842927","408.4671722255803842927","228.4671722255803842927","408.4671722255803842927","318.4671722255803842927","498.4671722255803842927"
"988074894","15","0","-1","138.4671722255803842927","4","-1","318.4671722255803842927","6","228.4671722255803842927","8","408.4671722255803842927","7","1","6","1483","138.4671722255803842927","318.4671722255803842927","228.4671722255803842927","408.4671722255803842927","228.4671722255803842927","408.4671722255803842927","318.4671722255803842927","498.4671722255803842927"
"988074894","15","0","-1","138.4671722255803842927","4","-1","318.4671722255803842927","6","228.4671722255803842927","8","408.4671722255803842927","7","6","5","1085","138.4671722255803842927","318.4671722255803842927","228.4671722255803842927","408.4671722255803842927","228.4671722255803842927","408.4671722255803842927","318.4671722255803842927","498.4671722255803842927"
"988074894","15","0","-1","138.4671722255803842927","4","-1","318.4671722255803842927","6","228.4671722255803842927","8","408.4671722255803842927","7","0","2","1558","138.4671722255803842927","318.4671722255803842927","228.4671722255803842927","408.4671722255803842927","228.4671722255803842927","408.4671722255803842927","318.4671722255803842927","498.4671722255803842927"
"988074894","15","0","-1","138.4671722255803842927","4","-1","318.4671722255803842927","6","228.4671722255803842927","8","408.4671722255803842927","7","5","3","1281","138.4671722255803842927","318.4671722255803842927","228.4671722255803842927","408.4671722255803842927","228.4671722255803842927","408.4671722255803842927","318.4671722255803842927","498.4671722255803842927"
"988074894","15","0","-1","138.4671722255803842927","4","-1","318.4671722255803842927","6","228.4671722255803842927","8","408.4671722255803842927","7","7","1","952","138.4671722255803842927","318.4671722255803842927","228.4671722255803842927","408.4671722255803842927","228.4671722255803842927","408.4671722255803842927","318.4671722255803842927","498.4671722255803842927"
"988074894","15","0","-1","138.4671722255803842927","4","-1","318.4671722255803842927","6","228.4671722255803842927","8","408.4671722255803842927","7","4","4","2748","138.4671722255803842927","318.4671722255803842927","228.4671722255803842927","408.4671722255803842927","228.4671722255803842927","408.4671722255803842927","318.4671722255803842927","498.4671722255803842927"
"988074894","16","0","1","176.8996093694352680359","4","1","356.8996093694352680359","1","266.8996093694352680359","9","446.8996093694352680359","3","0","1","1627","176.8996093694352680359","356.8996093694352680359","266.8996093694352680359","446.8996093694352680359","266.8996093694352680359","446.8996093694352680359","356.8996093694352680359","536.8996093694352111925"
"988074894","16","0","1","176.8996093694352680359","4","1","356.8996093694352680359","1","266.8996093694352680359","9","446.8996093694352680359","3","0","3","692","176.8996093694352680359","356.8996093694352680359","266.8996093694352680359","446.8996093694352680359","266.8996093694352680359","446.8996093694352680359","356.8996093694352680359","536.8996093694352111925"
"988074894","16","0","1","176.8996093694352680359","4","1","356.8996093694352680359","1","266.8996093694352680359","9","446.8996093694352680359","3","2","2","1394","176.8996093694352680359","356.8996093694352680359","266.8996093694352680359","446.8996093694352680359","266.8996093694352680359","446.8996093694352680359","356.8996093694352680359","536.8996093694352111925"
"988074894","16","0","1","176.8996093694352680359","4","1","356.8996093694352680359","1","266.8996093694352680359","9","446.8996093694352680359","3","7","9","1137","176.8996093694352680359","356.8996093694352680359","266.8996093694352680359","446.8996093694352680359","266.8996093694352680359","446.8996093694352680359","356.8996093694352680359","536.8996093694352111925"
"988074894","16","0","1","176.8996093694352680359","4","1","356.8996093694352680359","1","266.8996093694352680359","9","446.8996093694352680359","3","5","4","673","176.8996093694352680359","356.8996093694352680359","266.8996093694352680359","446.8996093694352680359","266.8996093694352680359","446.8996093694352680359","356.8996093694352680359","536.8996093694352111925"
"988074894","16","0","1","176.8996093694352680359","4","1","356.8996093694352680359","1","266.8996093694352680359","9","446.8996093694352680359","3","1","6","783","176.8996093694352680359","356.8996093694352680359","266.8996093694352680359","446.8996093694352680359","266.8996093694352680359","446.8996093694352680359","356.8996093694352680359","536.8996093694352111925"
"988074894","16","0","1","176.8996093694352680359","4","1","356.8996093694352680359","1","266.8996093694352680359","9","446.8996093694352680359","3","4","5","1311","176.8996093694352680359","356.8996093694352680359","266.8996093694352680359","446.8996093694352680359","266.8996093694352680359","446.8996093694352680359","356.8996093694352680359","536.8996093694352111925"
"988074894","16","0","1","176.8996093694352680359","4","1","356.8996093694352680359","1","266.8996093694352680359","9","446.8996093694352680359","3","6","8","1318","176.8996093694352680359","356.8996093694352680359","266.8996093694352680359","446.8996093694352680359","266.8996093694352680359","446.8996093694352680359","356.8996093694352680359","536.8996093694352111925"
"988074894","16","0","1","176.8996093694352680359","4","1","356.8996093694352680359","1","266.8996093694352680359","9","446.8996093694352680359","3","7","7","540","176.8996093694352680359","356.8996093694352680359","266.8996093694352680359","446.8996093694352680359","266.8996093694352680359","446.8996093694352680359","356.8996093694352680359","536.8996093694352111925"
"988074894","17","0","-1","20.7347570733946895416","1","-1","200.7347570733946895416","5","110.7347570733946895416","8","290.7347570733946895416","1","5","9","1766","20.7347570733946895416","200.7347570733946895416","110.7347570733946895416","290.7347570733946895416","110.7347570733946895416","290.7347570733946895416","200.7347570733946895416","380.7347570733946895416"
"988074894","17","0","-1","20.7347570733946895416","1","-1","200.7347570733946895416","5","110.7347570733946895416","8","290.7347570733946895416","1","4","2","944","20.7347570733946895416","200.7347570733946895416","110.7347570733946895416","290.7347570733946895416","110.7347570733946895416","290.7347570733946895416","200.7347570733946895416","380.7347570733946895416"
"988074894","17","0","-1","20.7347570733946895416","1","-1","200.7347570733946895416","5","110.7347570733946895416","8","290.7347570733946895416","1","6","1","866","20.7347570733946895416","200.7347570733946895416","110.7347570733946895416","290.7347570733946895416","110.7347570733946895416","290.7347570733946895416","200.7347570733946895416","380.7347570733946895416"
"988074894","17","0","-1","20.7347570733946895416","1","-1","200.7347570733946895416","5","110.7347570733946895416","8","290.7347570733946895416","1","0","8","966","20.7347570733946895416","200.7347570733946895416","110.7347570733946895416","290.7347570733946895416","110.7347570733946895416","290.7347570733946895416","200.7347570733946895416","380.7347570733946895416"
"988074894","17","0","-1","20.7347570733946895416","1","-1","200.7347570733946895416","5","110.7347570733946895416","8","290.7347570733946895416","1","1","5","622","20.7347570733946895416","200.7347570733946895416","110.7347570733946895416","290.7347570733946895416","110.7347570733946895416","290.7347570733946895416","200.7347570733946895416","380.7347570733946895416"
"988074894","17","0","-1","20.7347570733946895416","1","-1","200.7347570733946895416","5","110.7347570733946895416","8","290.7347570733946895416","1","3","4","734","20.7347570733946895416","200.7347570733946895416","110.7347570733946895416","290.7347570733946895416","110.7347570733946895416","290.7347570733946895416","200.7347570733946895416","380.7347570733946895416"
"988074894","17","0","-1","20.7347570733946895416","1","-1","200.7347570733946895416","5","110.7347570733946895416","8","290.7347570733946895416","1","2","7","640","20.7347570733946895416","200.7347570733946895416","110.7347570733946895416","290.7347570733946895416","110.7347570733946895416","290.7347570733946895416","200.7347570733946895416","380.7347570733946895416"
"988074894","17","0","-1","20.7347570733946895416","1","-1","200.7347570733946895416","5","110.7347570733946895416","8","290.7347570733946895416","1","4","3","540","20.7347570733946895416","200.7347570733946895416","110.7347570733946895416","290.7347570733946895416","110.7347570733946895416","290.7347570733946895416","200.7347570733946895416","380.7347570733946895416"
"988074894","17","0","-1","20.7347570733946895416","1","-1","200.7347570733946895416","5","110.7347570733946895416","8","290.7347570733946895416","1","6","6","627","20.7347570733946895416","200.7347570733946895416","110.7347570733946895416","290.7347570733946895416","110.7347570733946895416","290.7347570733946895416","200.7347570733946895416","380.7347570733946895416"
"988074894","18","0","1","79.9414403224227498868","9","1","259.9414403224227498868","5","169.9414403224227498868","5","349.9414403224227498868","1","7","6","1188","79.9414403224227498868","259.9414403224227498868","169.9414403224227498868","349.9414403224227498868","169.9414403224227498868","349.9414403224227498868","259.9414403224227498868","439.9414403224227498868"
"988074894","18","0","1","79.9414403224227498868","9","1","259.9414403224227498868","5","169.9414403224227498868","5","349.9414403224227498868","1","4","4","1308","79.9414403224227498868","259.9414403224227498868","169.9414403224227498868","349.9414403224227498868","169.9414403224227498868","349.9414403224227498868","259.9414403224227498868","439.9414403224227498868"
"988074894","18","0","1","79.9414403224227498868","9","1","259.9414403224227498868","5","169.9414403224227498868","5","349.9414403224227498868","1","6","2","775","79.9414403224227498868","259.9414403224227498868","169.9414403224227498868","349.9414403224227498868","169.9414403224227498868","349.9414403224227498868","259.9414403224227498868","439.9414403224227498868"
"988074894","18","0","1","79.9414403224227498868","9","1","259.9414403224227498868","5","169.9414403224227498868","5","349.9414403224227498868","1","3","5","1405","79.9414403224227498868","259.9414403224227498868","169.9414403224227498868","349.9414403224227498868","169.9414403224227498868","349.9414403224227498868","259.9414403224227498868","439.9414403224227498868"
"988074894","18","0","1","79.9414403224227498868","9","1","259.9414403224227498868","5","169.9414403224227498868","5","349.9414403224227498868","1","5","7","947","79.9414403224227498868","259.9414403224227498868","169.9414403224227498868","349.9414403224227498868","169.9414403224227498868","349.9414403224227498868","259.9414403224227498868","439.9414403224227498868"
"988074894","18","0","1","79.9414403224227498868","9","1","259.9414403224227498868","5","169.9414403224227498868","5","349.9414403224227498868","1","6","8","1052","79.9414403224227498868","259.9414403224227498868","169.9414403224227498868","349.9414403224227498868","169.9414403224227498868","349.9414403224227498868","259.9414403224227498868","439.9414403224227498868"
"988074894","18","0","1","79.9414403224227498868","9","1","259.9414403224227498868","5","169.9414403224227498868","5","349.9414403224227498868","1","4","3","809","79.9414403224227498868","259.9414403224227498868","169.9414403224227498868","349.9414403224227498868","169.9414403224227498868","349.9414403224227498868","259.9414403224227498868","439.9414403224227498868"
"988074894","18","0","1","79.9414403224227498868","9","1","259.9414403224227498868","5","169.9414403224227498868","5","349.9414403224227498868","1","0","1","792","79.9414403224227498868","259.9414403224227498868","169.9414403224227498868","349.9414403224227498868","169.9414403224227498868","349.9414403224227498868","259.9414403224227498868","439.9414403224227498868"
"988074894","18","0","1","79.9414403224227498868","9","1","259.9414403224227498868","5","169.9414403224227498868","5","349.9414403224227498868","1","1","9","807","79.9414403224227498868","259.9414403224227498868","169.9414403224227498868","349.9414403224227498868","169.9414403224227498868","349.9414403224227498868","259.9414403224227498868","439.9414403224227498868"
"592843100","0","0","0","0","0","0","0","0","0","0","0","0","0","-1","0","0","0","0","0","0","0","0","0"
"592843100","0","0","0","0","0","0","0","0","0","0","0","0","0","-1","0","0","0","0","0","0","0","0","0"
"592843100","0","0","0","0","0","0","0","0","0","0","0","0","0","-1","0","0","0","0","0","0","0","0","0"
"592843100","0","0","0","0","0","0","0","0","0","0","0","0","0","-1","0","0","0","0","0","0","0","0","0"
"592843100","0","0","0","0","0","0","0","0","0","0","0","0","0","-1","0","0","0","0","0","0","0","0","0"
"592843100","0","0","0","0","0","0","0","0","0","0","0","0","0","-1","0","0","0","0","0","0","0","0","0"
"592843100","0","0","0","0","0","0","0","0","0","0","0","0","0","-1","0","0","0","0","0","0","0","0","0"
"592843100","0","0","0","0","0","0","0","0","0","0","0","0","7","9","1819","-85.3998513392638045616","94.6001486607361954384","4.6001486607361954384","184.6001486607361812275","4.6001486607361954384","184.6001486607361812275","94.6001486607361954384","274.6001486607361812275"
"592843100","1","0","1","99.0158170179966532487","3","1","279.0158170179966532487","5","189.0158170179966532487","1","369.0158170179966532487","9","4","1","4056","99.0158170179966532487","279.0158170179966532487","189.0158170179966532487","369.0158170179966532487","189.0158170179966532487","369.0158170179966532487","279.0158170179966532487","459.0158170179966532487"
"592843100","1","0","1","99.0158170179966532487","3","1","279.0158170179966532487","5","189.0158170179966532487","1","369.0158170179966532487","9","6","3","1459","99.0158170179966532487","279.0158170179966532487","189.0158170179966532487","369.0158170179966532487","189.0158170179966532487","369.0158170179966532487","279.0158170179966532487","459.0158170179966532487"
"592843100","1","0","1","99.0158170179966532487","3","1","279.0158170179966532487","5","189.0158170179966532487","1","369.0158170179966532487","9","2","4","1467","99.0158170179966532487","279.0158170179966532487","189.0158170179966532487","369.0158170179966532487","189.0158170179966532487","369.0158170179966532487","279.0158170179966532487","459.0158170179966532487"
"592843100","1","0","1","99.0158170179966532487","3","1","279.0158170179966532487","5","189.0158170179966532487","1","369.0158170179966532487","9","7","8","2096","99.0158170179966532487","279.0158170179966532487","189.0158170179966532487","369.0158170179966532487","189.0158170179966532487","369.0158170179966532487","279.0158170179966532487","459.0158170179966532487"
"592843100","1","0","1","99.0158170179966532487","3","1","279.0158170179966532487","5","189.0158170179966532487","1","369.0158170179966532487","9","7","2","2068","99.0158170179966532487","279.0158170179966532487","189.0158170179966532487","369.0158170179966532487","189.0158170179966532487","369.0158170179966532487","279.0158170179966532487","459.0158170179966532487"
"592843100","1","0","1","99.0158170179966532487","3","1","279.0158170179966532487","5","189.0158170179966532487","1","369.0158170179966532487","9","6","9","1870","99.0158170179966532487","279.0158170179966532487","189.0158170179966532487","369.0158170179966532487","189.0158170179966532487","369.0158170179966532487","279.0158170179966532487","459.0158170179966532487"
"592843100","1","0","1","99.0158170179966532487","3","1","279.0158170179966532487","5","189.0158170179966532487","1","369.0158170179966532487","9","4","5","4788","99.0158170179966532487","279.0158170179966532487","189.0158170179966532487","369.0158170179966532487","189.0158170179966532487","369.0158170179966532487","279.0158170179966532487","459.0158170179966532487"
"592843100","1","0","1","99.0158170179966532487","3","1","279.0158170179966532487","5","189.0158170179966532487","1","369.0158170179966532487","9","3","6","1801","99.0158170179966532487","279.0158170179966532487","189.0158170179966532487","369.0158170179966532487","189.0158170179966532487","369.0158170179966532487","279.0158170179966532487","459.0158170179966532487"
"592843100","1","0","1","99.0158170179966532487","3","1","279.0158170179966532487","5","189.0158170179966532487","1","369.0158170179966532487","9","1","7","1749","99.0158170179966532487","279.0158170179966532487","189.0158170179966532487","369.0158170179966532487","189.0158170179966532487","369.0158170179966532487","279.0158170179966532487","459.0158170179966532487"
"592843100","2","0","1","-128.9926818546356344086","7","1","51.0073181453643655914","2","-38.9926818546356344086","2","141.0073181453643655914","3","7","2","6029","-128.9926818546356344086","51.0073181453643655914","-38.9926818546356344086","141.0073181453643655914","-38.9926818546356344086","141.0073181453643655914","51.0073181453643655914","231.0073181453643655914"
"592843100","2","0","1","-128.9926818546356344086","7","1","51.0073181453643655914","2","-38.9926818546356344086","2","141.0073181453643655914","3","7","4","1837","-128.9926818546356344086","51.0073181453643655914","-38.9926818546356344086","141.0073181453643655914","-38.9926818546356344086","141.0073181453643655914","51.0073181453643655914","231.0073181453643655914"
"592843100","2","0","1","-128.9926818546356344086","7","1","51.0073181453643655914","2","-38.9926818546356344086","2","141.0073181453643655914","3","4","3","1172","-128.9926818546356344086","51.0073181453643655914","-38.9926818546356344086","141.0073181453643655914","-38.9926818546356344086","141.0073181453643655914","51.0073181453643655914","231.0073181453643655914"
"592843100","2","0","1","-128.9926818546356344086","7","1","51.0073181453643655914","2","-38.9926818546356344086","2","141.0073181453643655914","3","5","5","4597","-128.9926818546356344086","51.0073181453643655914","-38.9926818546356344086","141.0073181453643655914","-38.9926818546356344086","141.0073181453643655914","51.0073181453643655914","231.0073181453643655914"
"592843100","2","0","1","-128.9926818546356344086","7","1","51.0073181453643655914","2","-38.9926818546356344086","2","141.0073181453643655914","3","7","9","1763","-128.9926818546356344086","51.0073181453643655914","-38.9926818546356344086","141.0073181453643655914","-38.9926818546356344086","141.0073181453643655914","51.0073181453643655914","231.0073181453643655914"
"592843100","2","0","1","-128.9926818546356344086","7","1","51.0073181453643655914","2","-38.9926818546356344086","2","141.0073181453643655914","3","2","8","2644","-128.9926818546356344086","51.0073181453643655914","-38.9926818546356344086","141.0073181453643655914","-38.9926818546356344086","141.0073181453643655914","51.0073181453643655914","231.0073181453643655914"
"592843100","2","0","1","-128.9926818546356344086","7","1","51.0073181453643655914","2","-38.9926818546356344086","2","141.0073181453643655914","3","4","7","2214","-128.9926818546356344086","51.0073181453643655914","-38.9926818546356344086","141.0073181453643655914","-38.9926818546356344086","141.0073181453643655914","51.0073181453643655914","231.0073181453643655914"
"592843100","2","0","1","-128.9926818546356344086","7","1","51.0073181453643655914","2","-38.9926818546356344086","2","141.0073181453643655914","3","7","1","1233","-128.9926818546356344086","51.0073181453643655914","-38.9926818546356344086","141.0073181453643655914","-38.9926818546356344086","141.0073181453643655914","51.0073181453643655914","231.0073181453643655914"
"592843100","2","0","1","-128.9926818546356344086","7","1","51.0073181453643655914","2","-38.9926818546356344086","2","141.0073181453643655914","3","6","6","4731","-128.9926818546356344086","51.0073181453643655914","-38.9926818546356344086","141.0073181453643655914","-38.9926818546356344086","141.0073181453643655914","51.0073181453643655914","231.0073181453643655914"
"592843100","3","0","1","78.0556546845602952089","9","1","258.0556546845602952089","3","168.0556546845602952089","9","348.0556546845602952089","1","6","4","16567","78.0556546845602952089","258.0556546845602952089","168.0556546845602952089","348.0556546845602952089","168.0556546845602952089","348.0556546845602952089","258.0556546845602952089","438.0556546845602952089"
"592843100","3","0","1","78.0556546845602952089","9","1","258.0556546845602952089","3","168.0556546845602952089","9","348.0556546845602952089","1","6","6","2897","78.0556546845602952089","258.0556546845602952089","168.0556546845602952089","348.0556546845602952089","168.0556546845602952089","348.0556546845602952089","258.0556546845602952089","438.0556546845602952089"
"592843100","3","0","1","78.0556546845602952089","9","1","258.0556546845602952089","3","168.0556546845602952089","9","348.0556546845602952089","1","6","9","1322","78.0556546845602952089","258.0556546845602952089","168.0556546845602952089","348.0556546845602952089","168.0556546845602952089","348.0556546845602952089","258.0556546845602952089","438.0556546845602952089"
"592843100","3","0","1","78.0556546845602952089","9","1","258.0556546845602952089","3","168.0556546845602952089","9","348.0556546845602952089","1","7","7","2374","78.0556546845602952089","258.0556546845602952089","168.0556546845602952089","348.0556546845602952089","168.0556546845602952089","348.0556546845602952089","258.0556546845602952089","438.0556546845602952089"
"592843100","3","0","1","78.0556546845602952089","9","1","258.0556546845602952089","3","168.0556546845602952089","9","348.0556546845602952089","1","7","2","1263","78.0556546845602952089","258.0556546845602952089","168.0556546845602952089","348.0556546845602952089","168.0556546845602952089","348.0556546845602952089","258.0556546845602952089","438.0556546845602952089"
"592843100","3","0","1","78.0556546845602952089","9","1","258.0556546845602952089","3","168.0556546845602952089","9","348.0556546845602952089","1","4","5","3734","78.0556546845602952089","258.0556546845602952089","168.0556546845602952089","348.0556546845602952089","168.0556546845602952089","348.0556546845602952089","258.0556546845602952089","438.0556546845602952089"
"592843100","3","0","1","78.0556546845602952089","9","1","258.0556546845602952089","3","168.0556546845602952089","9","348.0556546845602952089","1","6","1","2157","78.0556546845602952089","258.0556546845602952089","168.0556546845602952089","348.0556546845602952089","168.0556546845602952089","348.0556546845602952089","258.0556546845602952089","438.0556546845602952089"
"592843100","3","0","1","78.0556546845602952089","9","1","258.0556546845602952089","3","168.0556546845602952089","9","348.0556546845602952089","1","7","3","1439","78.0556546845602952089","258.0556546845602952089","168.0556546845602952089","348.0556546845602952089","168.0556546845602952089","348.0556546845602952089","258.0556546845602952089","438.0556546845602952089"
"592843100","3","0","1","78.0556546845602952089","9","1","258.0556546845602952089","3","168.0556546845602952089","9","348.0556546845602952089","1","5","8","5521","78.0556546845602952089","258.0556546845602952089","168.0556546845602952089","348.0556546845602952089","168.0556546845602952089","348.0556546845602952089","258.0556546845602952089","438.0556546845602952089"
"592843100","4","0","-1","155.0493810360900397427","8","-1","335.0493810360900397427","9","245.0493810360900397427","5","425.0493810360900397427","5","5","3","13386","155.0493810360900397427","335.0493810360900397427","245.0493810360900397427","425.0493810360900397427","245.0493810360900397427","425.0493810360900397427","335.0493810360900397427","515.0493810360900397427"
"592843100","4","0","-1","155.0493810360900397427","8","-1","335.0493810360900397427","9","245.0493810360900397427","5","425.0493810360900397427","5","2","4","2565","155.0493810360900397427","335.0493810360900397427","245.0493810360900397427","425.0493810360900397427","245.0493810360900397427","425.0493810360900397427","335.0493810360900397427","515.0493810360900397427"
"592843100","4","0","-1","155.0493810360900397427","8","-1","335.0493810360900397427","9","245.0493810360900397427","5","425.0493810360900397427","5","6","9","1906","155.0493810360900397427","335.0493810360900397427","245.0493810360900397427","425.0493810360900397427","245.0493810360900397427","425.0493810360900397427","335.0493810360900397427","515.0493810360900397427"
"592843100","4","0","-1","155.0493810360900397427","8","-1","335.0493810360900397427","9","245.0493810360900397427","5","425.0493810360900397427","5","7","5","1382","155.0493810360900397427","335.0493810360900397427","245.0493810360900397427","425.0493810360900397427","245.0493810360900397427","425.0493810360900397427","335.0493810360900397427","515.0493810360900397427"
"592843100","4","0","-1","155.0493810360900397427","8","-1","335.0493810360900397427","9","245.0493810360900397427","5","425.0493810360900397427","5","5","7","2248","155.0493810360900397427","335.0493810360900397427","245.0493810360900397427","425.0493810360900397427","245.0493810360900397427","425.0493810360900397427","335.0493810360900397427","515.0493810360900397427"
"592843100","4","0","-1","155.0493810360900397427","8","-1","335.0493810360900397427","9","245.0493810360900397427","5","425.0493810360900397427","5","4","1","4731","155.0493810360900397427","335.0493810360900397427","245.0493810360900397427","425.0493810360900397427","245.0493810360900397427","425.0493810360900397427","335.0493810360900397427","515.0493810360900397427"
"592843100","4","0","-1","155.0493810360900397427","8","-1","335.0493810360900397427","9","245.0493810360900397427","5","425.0493810360900397427","5","3","2","2301","155.0493810360900397427","335.0493810360900397427","245.0493810360900397427","425.0493810360900397427","245.0493810360900397427","425.0493810360900397427","335.0493810360900397427","515.0493810360900397427"
"592843100","4","0","-1","155.0493810360900397427","8","-1","335.0493810360900397427","9","245.0493810360900397427","5","425.0493810360900397427","5","6","6","1524","155.0493810360900397427","335.0493810360900397427","245.0493810360900397427","425.0493810360900397427","245.0493810360900397427","425.0493810360900397427","335.0493810360900397427","515.0493810360900397427"
"592843100","4","0","-1","155.0493810360900397427","8","-1","335.0493810360900397427","9","245.0493810360900397427","5","425.0493810360900397427","5","3","8","2501","155.0493810360900397427","335.0493810360900397427","245.0493810360900397427","425.0493810360900397427","245.0493810360900397427","425.0493810360900397427","335.0493810360900397427","515.0493810360900397427"
"592843100","5","0","1","124.053747333598721525","5","1","304.053747333598721525","9","214.053747333598721525","6","394.053747333598721525","5","7","2","2386","124.053747333598721525","304.053747333598721525","214.053747333598721525","394.053747333598721525","214.053747333598721525","394.053747333598721525","304.053747333598721525","484.053747333598721525"
"592843100","5","0","1","124.053747333598721525","5","1","304.053747333598721525","9","214.053747333598721525","6","394.053747333598721525","5","5","4","2410","124.053747333598721525","304.053747333598721525","214.053747333598721525","394.053747333598721525","214.053747333598721525","394.053747333598721525","304.053747333598721525","484.053747333598721525"
"592843100","5","0","1","124.053747333598721525","5","1","304.053747333598721525","9","214.053747333598721525","6","394.053747333598721525","5","6","6","1659","124.053747333598721525","304.053747333598721525","214.053747333598721525","394.053747333598721525","214.053747333598721525","394.053747333598721525","304.053747333598721525","484.053747333598721525"
"592843100","5","0","1","124.053747333598721525","5","1","304.053747333598721525","9","214.053747333598721525","6","394.053747333598721525","5","7","1","1396","124.053747333598721525","304.053747333598721525","214.053747333598721525","394.053747333598721525","214.053747333598721525","394.053747333598721525","304.053747333598721525","484.053747333598721525"
"592843100","5","0","1","124.053747333598721525","5","1","304.053747333598721525","9","214.053747333598721525","6","394.053747333598721525","5","6","9","4179","124.053747333598721525","304.053747333598721525","214.053747333598721525","394.053747333598721525","214.053747333598721525","394.053747333598721525","304.053747333598721525","484.053747333598721525"
"592843100","5","0","1","124.053747333598721525","5","1","304.053747333598721525","9","214.053747333598721525","6","394.053747333598721525","5","7","8","7118","124.053747333598721525","304.053747333598721525","214.053747333598721525","394.053747333598721525","214.053747333598721525","394.053747333598721525","304.053747333598721525","484.053747333598721525"
"592843100","5","0","1","124.053747333598721525","5","1","304.053747333598721525","9","214.053747333598721525","6","394.053747333598721525","5","3","7","3007","124.053747333598721525","304.053747333598721525","214.053747333598721525","394.053747333598721525","214.053747333598721525","394.053747333598721525","304.053747333598721525","484.053747333598721525"
"592843100","5","0","1","124.053747333598721525","5","1","304.053747333598721525","9","214.053747333598721525","6","394.053747333598721525","5","2","5","1408","124.053747333598721525","304.053747333598721525","214.053747333598721525","394.053747333598721525","214.053747333598721525","394.053747333598721525","304.053747333598721525","484.053747333598721525"
"592843100","5","0","1","124.053747333598721525","5","1","304.053747333598721525","9","214.053747333598721525","6","394.053747333598721525","5","4","3","2006","124.053747333598721525","304.053747333598721525","214.053747333598721525","394.053747333598721525","214.053747333598721525","394.053747333598721525","304.053747333598721525","484.053747333598721525"
"592843100","6","0","1","-55.1253731164907492257","2","1","124.8746268835092507743","8","34.8746268835092507743","9","214.8746268835092507743","2","7","7","1442","-55.1253731164907492257","124.8746268835092507743","34.8746268835092507743","214.8746268835092507743","34.8746268835092507743","214.8746268835092507743","124.8746268835092507743","304.8746268835092223526"
"592843100","6","0","1","-55.1253731164907492257","2","1","124.8746268835092507743","8","34.8746268835092507743","9","214.8746268835092507743","2","6","9","1512","-55.1253731164907492257","124.8746268835092507743","34.8746268835092507743","214.8746268835092507743","34.8746268835092507743","214.8746268835092507743","124.8746268835092507743","304.8746268835092223526"
"592843100","6","0","1","-55.1253731164907492257","2","1","124.8746268835092507743","8","34.8746268835092507743","9","214.8746268835092507743","2","7","3","2511","-55.1253731164907492257","124.8746268835092507743","34.8746268835092507743","214.8746268835092507743","34.8746268835092507743","214.8746268835092507743","124.8746268835092507743","304.8746268835092223526"
"592843100","6","0","1","-55.1253731164907492257","2","1","124.8746268835092507743","8","34.8746268835092507743","9","214.8746268835092507743","2","7","1","1266","-55.1253731164907492257","124.8746268835092507743","34.8746268835092507743","214.8746268835092507743","34.8746268835092507743","214.8746268835092507743","124.8746268835092507743","304.8746268835092223526"
"592843100","6","0","1","-55.1253731164907492257","2","1","124.8746268835092507743","8","34.8746268835092507743","9","214.8746268835092507743","2","5","8","1667","-55.1253731164907492257","124.8746268835092507743","34.8746268835092507743","214.8746268835092507743","34.8746268835092507743","214.8746268835092507743","124.8746268835092507743","304.8746268835092223526"
"592843100","6","0","1","-55.1253731164907492257","2","1","124.8746268835092507743","8","34.8746268835092507743","9","214.8746268835092507743","2","4","5","1534","-55.1253731164907492257","124.8746268835092507743","34.8746268835092507743","214.8746268835092507743","34.8746268835092507743","214.8746268835092507743","124.8746268835092507743","304.8746268835092223526"
"592843100","6","0","1","-55.1253731164907492257","2","1","124.8746268835092507743","8","34.8746268835092507743","9","214.8746268835092507743","2","5","4","2262","-55.1253731164907492257","124.8746268835092507743","34.8746268835092507743","214.8746268835092507743","34.8746268835092507743","214.8746268835092507743","124.8746268835092507743","304.8746268835092223526"
"592843100","6","0","1","-55.1253731164907492257","2","1","124.8746268835092507743","8","34.8746268835092507743","9","214.8746268835092507743","2","6","2","1271","-55.1253731164907492257","124.8746268835092507743","34.8746268835092507743","214.8746268835092507743","34.8746268835092507743","214.8746268835092507743","124.8746268835092507743","304.8746268835092223526"
"592843100","6","0","1","-55.1253731164907492257","2","1","124.8746268835092507743","8","34.8746268835092507743","9","214.8746268835092507743","2","5","6","1767","-55.1253731164907492257","124.8746268835092507743","34.8746268835092507743","214.8746268835092507743","34.8746268835092507743","214.8746268835092507743","124.8746268835092507743","304.8746268835092223526"
"592843100","7","0","-1","107.4990334286119377794","9","-1","287.4990334286119377794","8","197.4990334286119377794","4","377.4990334286119377794","4","5","3","6595","107.4990334286119377794","287.4990334286119377794","197.4990334286119377794","377.4990334286119377794","197.4990334286119377794","377.4990334286119377794","287.4990334286119377794","467.4990334286119377794"
"592843100","7","0","-1","107.4990334286119377794","9","-1","287.4990334286119377794","8","197.4990334286119377794","4","377.4990334286119377794","4","7","9","1416","107.4990334286119377794","287.4990334286119377794","197.4990334286119377794","377.4990334286119377794","197.4990334286119377794","377.4990334286119377794","287.4990334286119377794","467.4990334286119377794"
"592843100","7","0","-1","107.4990334286119377794","9","-1","287.4990334286119377794","8","197.4990334286119377794","4","377.4990334286119377794","4","7","6","2756","107.4990334286119377794","287.4990334286119377794","197.4990334286119377794","377.4990334286119377794","197.4990334286119377794","377.4990334286119377794","287.4990334286119377794","467.4990334286119377794"
"592843100","7","0","-1","107.4990334286119377794","9","-1","287.4990334286119377794","8","197.4990334286119377794","4","377.4990334286119377794","4","4","8","2078","107.4990334286119377794","287.4990334286119377794","197.4990334286119377794","377.4990334286119377794","197.4990334286119377794","377.4990334286119377794","287.4990334286119377794","467.4990334286119377794"
"592843100","7","0","-1","107.4990334286119377794","9","-1","287.4990334286119377794","8","197.4990334286119377794","4","377.4990334286119377794","4","7","2","1517","107.4990334286119377794","287.4990334286119377794","197.4990334286119377794","377.4990334286119377794","197.4990334286119377794","377.4990334286119377794","287.4990334286119377794","467.4990334286119377794"
"592843100","7","0","-1","107.4990334286119377794","9","-1","287.4990334286119377794","8","197.4990334286119377794","4","377.4990334286119377794","4","4","4","3104","107.4990334286119377794","287.4990334286119377794","197.4990334286119377794","377.4990334286119377794","197.4990334286119377794","377.4990334286119377794","287.4990334286119377794","467.4990334286119377794"
"592843100","7","0","-1","107.4990334286119377794","9","-1","287.4990334286119377794","8","197.4990334286119377794","4","377.4990334286119377794","4","6","7","2755","107.4990334286119377794","287.4990334286119377794","197.4990334286119377794","377.4990334286119377794","197.4990334286119377794","377.4990334286119377794","287.4990334286119377794","467.4990334286119377794"
"592843100","7","0","-1","107.4990334286119377794","9","-1","287.4990334286119377794","8","197.4990334286119377794","4","377.4990334286119377794","4","3","5","1660","107.4990334286119377794","287.4990334286119377794","197.4990334286119377794","377.4990334286119377794","197.4990334286119377794","377.4990334286119377794","287.4990334286119377794","467.4990334286119377794"
"592843100","7","0","-1","107.4990334286119377794","9","-1","287.4990334286119377794","8","197.4990334286119377794","4","377.4990334286119377794","4","7","1","1846","107.4990334286119377794","287.4990334286119377794","197.4990334286119377794","377.4990334286119377794","197.4990334286119377794","377.4990334286119377794","287.4990334286119377794","467.4990334286119377794"
"592843100","8","0","-1","19.0255741120841435077","3","-1","199.0255741120841435077","4","109.0255741120841435077","9","289.0255741120841435077","1","7","2","13962","19.0255741120841435077","199.0255741120841435077","109.0255741120841435077","289.0255741120841435077","109.0255741120841435077","289.0255741120841435077","199.0255741120841435077","379.0255741120841435077"
"592843100","8","0","-1","19.0255741120841435077","3","-1","199.0255741120841435077","4","109.0255741120841435077","9","289.0255741120841435077","1","7","3","1631","19.0255741120841435077","199.0255741120841435077","109.0255741120841435077","289.0255741120841435077","109.0255741120841435077","289.0255741120841435077","199.0255741120841435077","379.0255741120841435077"
"592843100","8","0","-1","19.0255741120841435077","3","-1","199.0255741120841435077","4","109.0255741120841435077","9","289.0255741120841435077","1","5","4","3356","19.0255741120841435077","199.0255741120841435077","109.0255741120841435077","289.0255741120841435077","109.0255741120841435077","289.0255741120841435077","199.0255741120841435077","379.0255741120841435077"
"592843100","8","0","-1","19.0255741120841435077","3","-1","199.0255741120841435077","4","109.0255741120841435077","9","289.0255741120841435077","1","7","8","1370","19.0255741120841435077","199.0255741120841435077","109.0255741120841435077","289.0255741120841435077","109.0255741120841435077","289.0255741120841435077","199.0255741120841435077","379.0255741120841435077"
"592843100","8","0","-1","19.0255741120841435077","3","-1","199.0255741120841435077","4","109.0255741120841435077","9","289.0255741120841435077","1","6","6","2024","19.0255741120841435077","199.0255741120841435077","109.0255741120841435077","289.0255741120841435077","109.0255741120841435077","289.0255741120841435077","199.0255741120841435077","379.0255741120841435077"
"592843100","8","0","-1","19.0255741120841435077","3","-1","199.0255741120841435077","4","109.0255741120841435077","9","289.0255741120841435077","1","2","7","1244","19.0255741120841435077","199.0255741120841435077","109.0255741120841435077","289.0255741120841435077","109.0255741120841435077","289.0255741120841435077","199.0255741120841435077","379.0255741120841435077"
"592843100","8","0","-1","19.0255741120841435077","3","-1","199.0255741120841435077","4","109.0255741120841435077","9","289.0255741120841435077","1","7","1","1509","19.0255741120841435077","199.0255741120841435077","109.0255741120841435077","289.0255741120841435077","109.0255741120841435077","289.0255741120841435077","199.0255741120841435077","379.0255741120841435077"
"592843100","8","0","-1","19.0255741120841435077","3","-1","199.0255741120841435077","4","109.0255741120841435077","9","289.0255741120841435077","1","6","5","2120","19.0255741120841435077","199.0255741120841435077","109.0255741120841435077","289.0255741120841435077","109.0255741120841435077","289.0255741120841435077","199.0255741120841435077","379.0255741120841435077"
"592843100","8","0","-1","19.0255741120841435077","3","-1","199.0255741120841435077","4","109.0255741120841435077","9","289.0255741120841435077","1","5","9","3998","19.0255741120841435077","199.0255741120841435077","109.0255741120841435077","289.0255741120841435077","109.0255741120841435077","289.0255741120841435077","199.0255741120841435077","379.0255741120841435077"
"592843100","9","0","-1","166.9705039325567099695","6","-1","346.9705039325567099695","2","256.9705039325567099695","5","436.9705039325567099695","8","6","9","1768","166.9705039325567099695","346.9705039325567099695","256.9705039325567099695","436.9705039325567099695","256.9705039325567099695","436.9705039325567099695","346.9705039325567099695","526.9705039325567668129"
"592843100","9","0","-1","166.9705039325567099695","6","-1","346.9705039325567099695","2","256.9705039325567099695","5","436.9705039325567099695","8","7","4","1580","166.9705039325567099695","346.9705039325567099695","256.9705039325567099695","436.9705039325567099695","256.9705039325567099695","436.9705039325567099695","346.9705039325567099695","526.9705039325567668129"
"592843100","9","0","-1","166.9705039325567099695","6","-1","346.9705039325567099695","2","256.9705039325567099695","5","436.9705039325567099695","8","5","2","1789","166.9705039325567099695","346.9705039325567099695","256.9705039325567099695","436.9705039325567099695","256.9705039325567099695","436.9705039325567099695","346.9705039325567099695","526.9705039325567668129"
"592843100","9","0","-1","166.9705039325567099695","6","-1","346.9705039325567099695","2","256.9705039325567099695","5","436.9705039325567099695","8","6","3","10892","166.9705039325567099695","346.9705039325567099695","256.9705039325567099695","436.9705039325567099695","256.9705039325567099695","436.9705039325567099695","346.9705039325567099695","526.9705039325567668129"
"592843100","9","0","-1","166.9705039325567099695","6","-1","346.9705039325567099695","2","256.9705039325567099695","5","436.9705039325567099695","8","3","5","1662","166.9705039325567099695","346.9705039325567099695","256.9705039325567099695","436.9705039325567099695","256.9705039325567099695","436.9705039325567099695","346.9705039325567099695","526.9705039325567668129"
"592843100","9","0","-1","166.9705039325567099695","6","-1","346.9705039325567099695","2","256.9705039325567099695","5","436.9705039325567099695","8","5","8","1605","166.9705039325567099695","346.9705039325567099695","256.9705039325567099695","436.9705039325567099695","256.9705039325567099695","436.9705039325567099695","346.9705039325567099695","526.9705039325567668129"
"592843100","9","0","-1","166.9705039325567099695","6","-1","346.9705039325567099695","2","256.9705039325567099695","5","436.9705039325567099695","8","6","6","1585","166.9705039325567099695","346.9705039325567099695","256.9705039325567099695","436.9705039325567099695","256.9705039325567099695","436.9705039325567099695","346.9705039325567099695","526.9705039325567668129"
"592843100","9","0","-1","166.9705039325567099695","6","-1","346.9705039325567099695","2","256.9705039325567099695","5","436.9705039325567099695","8","7","1","1058","166.9705039325567099695","346.9705039325567099695","256.9705039325567099695","436.9705039325567099695","256.9705039325567099695","436.9705039325567099695","346.9705039325567099695","526.9705039325567668129"
"592843100","9","0","-1","166.9705039325567099695","6","-1","346.9705039325567099695","2","256.9705039325567099695","5","436.9705039325567099695","8","6","7","1787","166.9705039325567099695","346.9705039325567099695","256.9705039325567099695","436.9705039325567099695","256.9705039325567099695","436.9705039325567099695","346.9705039325567099695","526.9705039325567668129"
"592843100","10","0","-1","-121.5668319681581976965","5","-1","58.4331680318418023035","9","-31.5668319681581976965","2","148.4331680318418023035","6","6","9","25864","-121.5668319681581976965","58.4331680318418023035","-31.5668319681581976965","148.4331680318418023035","-31.5668319681581976965","148.4331680318418023035","58.4331680318418023035","238.4331680318418023035"
"592843100","10","0","-1","-121.5668319681581976965","5","-1","58.4331680318418023035","9","-31.5668319681581976965","2","148.4331680318418023035","6","4","7","1563","-121.5668319681581976965","58.4331680318418023035","-31.5668319681581976965","148.4331680318418023035","-31.5668319681581976965","148.4331680318418023035","58.4331680318418023035","238.4331680318418023035"
"592843100","10","0","-1","-121.5668319681581976965","5","-1","58.4331680318418023035","9","-31.5668319681581976965","2","148.4331680318418023035","6","2","5","1345","-121.5668319681581976965","58.4331680318418023035","-31.5668319681581976965","148.4331680318418023035","-31.5668319681581976965","148.4331680318418023035","58.4331680318418023035","238.4331680318418023035"
"592843100","10","0","-1","-121.5668319681581976965","5","-1","58.4331680318418023035","9","-31.5668319681581976965","2","148.4331680318418023035","6","1","6","1580","-121.5668319681581976965","58.4331680318418023035","-31.5668319681581976965","148.4331680318418023035","-31.5668319681581976965","148.4331680318418023035","58.4331680318418023035","238.4331680318418023035"
"592843100","10","0","-1","-121.5668319681581976965","5","-1","58.4331680318418023035","9","-31.5668319681581976965","2","148.4331680318418023035","6","4","8","1562","-121.5668319681581976965","58.4331680318418023035","-31.5668319681581976965","148.4331680318418023035","-31.5668319681581976965","148.4331680318418023035","58.4331680318418023035","238.4331680318418023035"
"592843100","10","0","-1","-121.5668319681581976965","5","-1","58.4331680318418023035","9","-31.5668319681581976965","2","148.4331680318418023035","6","6","4","1937","-121.5668319681581976965","58.4331680318418023035","-31.5668319681581976965","148.4331680318418023035","-31.5668319681581976965","148.4331680318418023035","58.4331680318418023035","238.4331680318418023035"
"592843100","10","0","-1","-121.5668319681581976965","5","-1","58.4331680318418023035","9","-31.5668319681581976965","2","148.4331680318418023035","6","7","2","1087","-121.5668319681581976965","58.4331680318418023035","-31.5668319681581976965","148.4331680318418023035","-31.5668319681581976965","148.4331680318418023035","58.4331680318418023035","238.4331680318418023035"
"592843100","10","0","-1","-121.5668319681581976965","5","-1","58.4331680318418023035","9","-31.5668319681581976965","2","148.4331680318418023035","6","5","3","1239","-121.5668319681581976965","58.4331680318418023035","-31.5668319681581976965","148.4331680318418023035","-31.5668319681581976965","148.4331680318418023035","58.4331680318418023035","238.4331680318418023035"
"592843100","10","0","-1","-121.5668319681581976965","5","-1","58.4331680318418023035","9","-31.5668319681581976965","2","148.4331680318418023035","6","7","1","1565","-121.5668319681581976965","58.4331680318418023035","-31.5668319681581976965","148.4331680318418023035","-31.5668319681581976965","148.4331680318418023035","58.4331680318418023035","238.4331680318418023035"
"592843100","11","0","1","82.8057708271792876076","6","1","262.8057708271792876076","6","172.8057708271792876076","1","352.8057708271792876076","9","2","5","1652","82.8057708271792876076","262.8057708271792876076","172.8057708271792876076","352.8057708271792876076","172.8057708271792876076","352.8057708271792876076","262.8057708271792876076","442.8057708271792876076"
"592843100","11","0","1","82.8057708271792876076","6","1","262.8057708271792876076","6","172.8057708271792876076","1","352.8057708271792876076","9","5","9","2354","82.8057708271792876076","262.8057708271792876076","172.8057708271792876076","352.8057708271792876076","172.8057708271792876076","352.8057708271792876076","262.8057708271792876076","442.8057708271792876076"
"592843100","11","0","1","82.8057708271792876076","6","1","262.8057708271792876076","6","172.8057708271792876076","1","352.8057708271792876076","9","7","1","1318","82.8057708271792876076","262.8057708271792876076","172.8057708271792876076","352.8057708271792876076","172.8057708271792876076","352.8057708271792876076","262.8057708271792876076","442.8057708271792876076"
"592843100","11","0","1","82.8057708271792876076","6","1","262.8057708271792876076","6","172.8057708271792876076","1","352.8057708271792876076","9","4","2","2955","82.8057708271792876076","262.8057708271792876076","172.8057708271792876076","352.8057708271792876076","172.8057708271792876076","352.8057708271792876076","262.8057708271792876076","442.8057708271792876076"
"592843100","11","0","1","82.8057708271792876076","6","1","262.8057708271792876076","6","172.8057708271792876076","1","352.8057708271792876076","9","6","6","1637","82.8057708271792876076","262.8057708271792876076","172.8057708271792876076","352.8057708271792876076","172.8057708271792876076","352.8057708271792876076","262.8057708271792876076","442.8057708271792876076"
"592843100","11","0","1","82.8057708271792876076","6","1","262.8057708271792876076","6","172.8057708271792876076","1","352.8057708271792876076","9","7","3","1383","82.8057708271792876076","262.8057708271792876076","172.8057708271792876076","352.8057708271792876076","172.8057708271792876076","352.8057708271792876076","262.8057708271792876076","442.8057708271792876076"
"592843100","11","0","1","82.8057708271792876076","6","1","262.8057708271792876076","6","172.8057708271792876076","1","352.8057708271792876076","9","3","4","1621","82.8057708271792876076","262.8057708271792876076","172.8057708271792876076","352.8057708271792876076","172.8057708271792876076","352.8057708271792876076","262.8057708271792876076","442.8057708271792876076"
"592843100","11","0","1","82.8057708271792876076","6","1","262.8057708271792876076","6","172.8057708271792876076","1","352.8057708271792876076","9","7","8","1189","82.8057708271792876076","262.8057708271792876076","172.8057708271792876076","352.8057708271792876076","172.8057708271792876076","352.8057708271792876076","262.8057708271792876076","442.8057708271792876076"
"592843100","11","0","1","82.8057708271792876076","6","1","262.8057708271792876076","6","172.8057708271792876076","1","352.8057708271792876076","9","7","7","1128","82.8057708271792876076","262.8057708271792876076","172.8057708271792876076","352.8057708271792876076","172.8057708271792876076","352.8057708271792876076","262.8057708271792876076","442.8057708271792876076"
"816532760","0","0","0","0","0","0","0","0","0","0","0","0","0","-1","0","0","0","0","0","0","0","0","0"
"816532760","0","0","0","0","0","0","0","0","0","0","0","0","0","-1","0","0","0","0","0","0","0","0","0"
"816532760","0","0","0","0","0","0","0","0","0","0","0","0","0","-1","0","0","0","0","0","0","0","0","0"
"816532760","0","0","0","0","0","0","0","0","0","0","0","0","0","-1","0","0","0","0","0","0","0","0","0"
"816532760","0","0","0","0","0","0","0","0","0","0","0","0","0","-1","0","0","0","0","0","0","0","0","0"
"816532760","0","0","0","0","0","0","0","0","0","0","0","0","0","-1","0","0","0","0","0","0","0","0","0"
"816532760","0","0","0","0","0","0","0","0","0","0","0","0","0","-1","0","0","0","0","0","0","0","0","0"
