,stimulus_radius,central_radius,peripheral_radius,build,date,time,subject,group,blockcode,blocknum,trialcode,trialnum,response,correct,latency,subject.1,trial_number,sequence_number,order_num,trial_type,Cross_position,Circle_1,Position_1,Color_1,Circle_2,Position_2,Color_2,Position_3,Color_3,Position_4,Color_4,similarity,response_time,angle_1,angle_2,angle_3,angle_4,angle_1_cue,angle_2_cue,angle_3_cue,angle_4_cue,catch_vals,ratio_pxpermm,screen_size_x,screen_size_y,viewer_distance,line_size,calibration_image_size,DVA_to_distance,ratio_pxpermm.1,radius_F,radius_P,r_F,peripheral_scale,bin1,bin2,eccen_type,noncompliant
2316,1,1,10,6.2.1,26-08-20,15:08:55,513963865,789715452,experiment,28,centermouse,4,centersquare,0,602,513963865,13,25,87,during,0,-1,5.945164528,#AAFF00,-1,185.9451645,#AA00FF,0,0,0,0,2,1328,5.945164528,185.9451645,185.9451645,5.945164528,95.94516453,275.9451645,275.9451645,95.94516453,NA,4.3224299065420561661px,370.1621621621621329723px,208.2162162162162246659px,567.3959944,86.4485981308411197688px,13594.391999999999825377px,9.90393038,4.3224299065420561661px,42.8090448650540906783px,428.0904486505409067831px,42.8090448650540906783px,4.5,NA,NA,FF,0
2318,1,1,10,6.2.1,26-08-20,15:08:55,513963865,789715452,experiment,30,centermouse,4,centersquare,0,539,513963865,15,239,220,during,0,-1,-12.7363369,#FF00AA,-1,167.2636631,#FF0000,0,0,0,0,2,1112,-12.7363369,167.2636631,167.2636631,-12.7363369,77.2636631,257.2636631,257.2636631,77.2636631,NA,4.3224299065420561661px,370.1621621621621329723px,208.2162162162162246659px,567.3959944,86.4485981308411197688px,13594.391999999999825377px,9.90393038,4.3224299065420561661px,42.8090448650540906783px,428.0904486505409067831px,42.8090448650540906783px,4.5,NA,NA,FF,0
2319,1,1,10,6.2.1,26-08-20,15:08:55,513963865,789715452,experiment,31,centermouse,4,centersquare,0,540,513963865,16,146,138,during,0,-1,6.192641113,#FFAA00,-1,186.1926411,#AAFF00,0,0,0,0,2,976,6.192641113,186.1926411,186.1926411,6.192641113,96.19264111,276.1926411,276.1926411,96.19264111,NA,4.3224299065420561661px,370.1621621621621329723px,208.2162162162162246659px,567.3959944,86.4485981308411197688px,13594.391999999999825377px,9.90393038,4.3224299065420561661px,42.8090448650540906783px,428.0904486505409067831px,42.8090448650540906783px,4.5,NA,NA,FF,0
2327,1,1,10,6.2.1,26-08-20,15:08:55,513963865,789715452,experiment,39,centermouse,4,centersquare,0,560,513963865,24,243,182,during,0,-1,18.77145602,#00A9FF,-1,198.771456,#0000FF,0,0,0,0,2,3683,18.77145602,198.771456,198.771456,18.77145602,108.771456,288.771456,288.771456,108.771456,NA,4.3224299065420561661px,370.1621621621621329723px,208.2162162162162246659px,567.3959944,86.4485981308411197688px,13594.391999999999825377px,9.90393038,4.3224299065420561661px,42.8090448650540906783px,428.0904486505409067831px,42.8090448650540906783px,4.5,NA,NA,FF,0
2328,1,1,10,6.2.1,26-08-20,15:08:55,513963865,789715452,experiment,40,centermouse,4,centersquare,0,685,513963865,25,127,18,during,0,-1,-0.973476072,#00FFA9,-1,179.0265239,#FFAA00,0,0,0,0,2,1086,-0.973476072,179.0265239,179.0265239,-0.973476072,89.02652393,269.0265239,269.0265239,89.02652393,NA,4.3224299065420561661px,370.1621621621621329723px,208.2162162162162246659px,567.3959944,86.4485981308411197688px,13594.391999999999825377px,9.90393038,4.3224299065420561661px,42.8090448650540906783px,428.0904486505409067831px,42.8090448650540906783px,4.5,NA,NA,FF,0
2332,1,1,10,6.2.1,26-08-20,15:08:55,513963865,789715452,experiment,44,centermouse,4,centersquare,0,611,513963865,29,242,191,during,0,-1,27.25079453,#00A9FF,-1,207.2507945,#AAFF00,0,0,0,0,2,4019,27.25079453,207.2507945,207.2507945,27.25079453,117.2507945,297.2507945,297.2507945,117.2507945,NA,4.3224299065420561661px,370.1621621621621329723px,208.2162162162162246659px,567.3959944,86.4485981308411197688px,13594.391999999999825377px,9.90393038,4.3224299065420561661px,42.8090448650540906783px,428.0904486505409067831px,42.8090448650540906783px,4.5,NA,NA,FF,0
2334,1,1,10,6.2.1,26-08-20,15:08:55,513963865,789715452,experiment,46,centermouse,4,centersquare,0,491,513963865,31,91,228,during,0,-1,-16.60711617,#00FFA9,-1,163.3928838,#FF0000,0,0,0,0,2,1388,-16.60711617,163.3928838,163.3928838,-16.60711617,73.39288383,253.3928838,253.3928838,73.39288383,NA,4.3224299065420561661px,370.1621621621621329723px,208.2162162162162246659px,567.3959944,86.4485981308411197688px,13594.391999999999825377px,9.90393038,4.3224299065420561661px,42.8090448650540906783px,428.0904486505409067831px,42.8090448650540906783px,4.5,NA,NA,FF,0
2337,1,1,10,6.2.1,26-08-20,15:08:55,513963865,789715452,experiment,49,centermouse,4,centersquare,0,515,513963865,34,39,27,during,0,-1,-4.021318176,#FF0000,-1,175.9786818,#FF00AA,0,0,0,0,2,2314,-4.021318176,175.9786818,175.9786818,-4.021318176,85.97868182,265.9786818,265.9786818,85.97868182,NA,4.3224299065420561661px,370.1621621621621329723px,208.2162162162162246659px,567.3959944,86.4485981308411197688px,13594.391999999999825377px,9.90393038,4.3224299065420561661px,42.8090448650540906783px,428.0904486505409067831px,42.8090448650540906783px,4.5,NA,NA,FF,0
2338,1,1,10,6.2.1,26-08-20,15:08:55,513963865,789715452,experiment,50,centermouse,4,centersquare,0,676,513963865,35,27,70,during,0,-1,-12.89690645,#AAFF00,-1,167.1030935,#00A9FF,0,0,0,0,1,3193,-12.89690645,167.1030935,167.1030935,-12.89690645,77.10309355,257.1030935,257.1030935,77.10309355,NA,4.3224299065420561661px,370.1621621621621329723px,208.2162162162162246659px,567.3959944,86.4485981308411197688px,13594.391999999999825377px,9.90393038,4.3224299065420561661px,42.8090448650540906783px,428.0904486505409067831px,42.8090448650540906783px,4.5,NA,NA,FF,0
2344,1,1,10,6.2.1,26-08-20,15:08:55,513963865,789715452,experiment,56,centermouse,4,centersquare,0,656,513963865,40,28,97,during,0,-1,27.22399088,#AA00FF,-1,207.2239909,#00A9FF,0,0,0,0,1,1506,27.22399088,207.2239909,207.2239909,27.22399088,117.2239909,297.2239909,297.2239909,117.2239909,NA,4.3224299065420561661px,370.1621621621621329723px,208.2162162162162246659px,567.3959944,86.4485981308411197688px,13594.391999999999825377px,9.90393038,4.3224299065420561661px,42.8090448650540906783px,428.0904486505409067831px,42.8090448650540906783px,4.5,NA,NA,FF,0
2354,1,1,10,6.2.1,26-08-20,15:08:55,513963865,789715452,experiment,66,centermouse,4,centersquare,0,701,513963865,50,6,67,during,0,-1,8.415193809,#00A9FF,-1,188.4151938,#00A9FF,0,0,0,0,0,1986,8.415193809,188.4151938,188.4151938,8.415193809,98.41519381,278.4151938,278.4151938,98.41519381,NA,4.3224299065420561661px,370.1621621621621329723px,208.2162162162162246659px,567.3959944,86.4485981308411197688px,13594.391999999999825377px,9.90393038,4.3224299065420561661px,42.8090448650540906783px,428.0904486505409067831px,42.8090448650540906783px,4.5,NA,NA,FF,0
2355,1,1,10,6.2.1,26-08-20,15:08:55,513963865,789715452,experiment,67,centermouse,4,centersquare,0,725,513963865,51,217,129,during,0,-1,20.83448044,#FF0000,-1,200.8344804,#FF0000,0,0,0,0,0,711,20.83448044,200.8344804,200.8344804,20.83448044,110.8344804,290.8344804,290.8344804,110.8344804,NA,4.3224299065420561661px,370.1621621621621329723px,208.2162162162162246659px,567.3959944,86.4485981308411197688px,13594.391999999999825377px,9.90393038,4.3224299065420561661px,42.8090448650540906783px,428.0904486505409067831px,42.8090448650540906783px,4.5,NA,NA,FF,0
2356,1,1,10,6.2.1,26-08-20,15:08:55,513963865,789715452,experiment,68,centermouse,4,centersquare,0,1124,513963865,52,173,154,during,0,-1,-4.115850077,#00FFA9,-1,175.8841499,#0000FF,0,0,0,0,1,1167,-4.115850077,175.8841499,175.8841499,-4.115850077,85.88414992,265.8841499,265.8841499,85.88414992,NA,4.3224299065420561661px,370.1621621621621329723px,208.2162162162162246659px,567.3959944,86.4485981308411197688px,13594.391999999999825377px,9.90393038,4.3224299065420561661px,42.8090448650540906783px,428.0904486505409067831px,42.8090448650540906783px,4.5,NA,NA,FF,0
2358,1,1,10,6.2.1,26-08-20,15:08:55,513963865,789715452,experiment,70,centermouse,4,centersquare,0,539,513963865,54,110,102,during,0,-1,24.43592132,#00FF00,-1,204.4359213,#AA00FF,0,0,0,0,2,5807,24.43592132,204.4359213,204.4359213,24.43592132,114.4359213,294.4359213,294.4359213,114.4359213,NA,4.3224299065420561661px,370.1621621621621329723px,208.2162162162162246659px,567.3959944,86.4485981308411197688px,13594.391999999999825377px,9.90393038,4.3224299065420561661px,42.8090448650540906783px,428.0904486505409067831px,42.8090448650540906783px,4.5,NA,NA,FF,0
2363,1,1,10,6.2.1,26-08-20,15:08:55,513963865,789715452,experiment,75,centermouse,4,centersquare,0,580,513963865,59,31,52,during,0,-1,-11.04928059,#FF00AA,-1,168.9507194,#FFAA00,0,0,0,0,1,1005,-11.04928059,168.9507194,168.9507194,-11.04928059,78.95071941,258.9507194,258.9507194,78.95071941,NA,4.3224299065420561661px,370.1621621621621329723px,208.2162162162162246659px,567.3959944,86.4485981308411197688px,13594.391999999999825377px,9.90393038,4.3224299065420561661px,42.8090448650540906783px,428.0904486505409067831px,42.8090448650540906783px,4.5,NA,NA,FF,0
2367,1,1,10,6.2.1,26-08-20,15:08:55,513963865,789715452,experiment,79,centermouse,4,centersquare,0,2308,513963865,63,177,238,during,0,-1,-16.08890182,#00A9FF,-1,163.9110982,#FF00AA,0,0,0,0,0,963,-16.08890182,163.9110982,163.9110982,-16.08890182,73.91109818,253.9110982,253.9110982,73.91109818,NA,4.3224299065420561661px,370.1621621621621329723px,208.2162162162162246659px,567.3959944,86.4485981308411197688px,13594.391999999999825377px,9.90393038,4.3224299065420561661px,42.8090448650540906783px,428.0904486505409067831px,42.8090448650540906783px,4.5,NA,NA,FF,0
2369,1,1,10,6.2.1,26-08-20,15:08:55,513963865,789715452,experiment,81,centermouse,4,centersquare,0,510,513963865,65,168,133,during,0,-1,-24.14835401,#FF0000,-1,155.851646,#00FF00,0,0,0,0,2,1543,-24.14835401,155.851646,155.851646,-24.14835401,65.85164599,245.851646,245.851646,65.85164599,NA,4.3224299065420561661px,370.1621621621621329723px,208.2162162162162246659px,567.3959944,86.4485981308411197688px,13594.391999999999825377px,9.90393038,4.3224299065420561661px,42.8090448650540906783px,428.0904486505409067831px,42.8090448650540906783px,4.5,NA,NA,FF,0
2371,1,1,10,6.2.1,26-08-20,15:08:55,513963865,789715452,experiment,83,centermouse,4,centersquare,0,483,513963865,67,123,118,during,0,-1,-24.16088353,#FFAA00,-1,155.8391165,#00A9FF,0,0,0,0,2,983,-24.16088353,155.8391165,155.8391165,-24.16088353,65.83911647,245.8391165,245.8391165,65.83911647,NA,4.3224299065420561661px,370.1621621621621329723px,208.2162162162162246659px,567.3959944,86.4485981308411197688px,13594.391999999999825377px,9.90393038,4.3224299065420561661px,42.8090448650540906783px,428.0904486505409067831px,42.8090448650540906783px,4.5,NA,NA,FF,0
2374,1,1,10,6.2.1,26-08-20,15:08:55,513963865,789715452,experiment,86,centermouse,4,centersquare,0,609,513963865,69,228,185,during,0,-1,-0.286491809,#00FFA9,-1,179.7135082,#FF00AA,0,0,0,0,3,3535,-0.286491809,179.7135082,179.7135082,-0.286491809,89.71350819,269.7135082,269.7135082,89.71350819,NA,4.3224299065420561661px,370.1621621621621329723px,208.2162162162162246659px,567.3959944,86.4485981308411197688px,13594.391999999999825377px,9.90393038,4.3224299065420561661px,42.8090448650540906783px,428.0904486505409067831px,42.8090448650540906783px,4.5,NA,NA,FF,0
2376,1,1,10,6.2.1,26-08-20,15:08:55,513963865,789715452,experiment,88,centermouse,4,centersquare,0,545,513963865,71,200,132,during,0,-1,22.79637594,#00A9FF,-1,202.7963759,#00FF00,0,0,0,0,2,1481,22.79637594,202.7963759,202.7963759,22.79637594,112.7963759,292.7963759,292.7963759,112.7963759,NA,4.3224299065420561661px,370.1621621621621329723px,208.2162162162162246659px,567.3959944,86.4485981308411197688px,13594.391999999999825377px,9.90393038,4.3224299065420561661px,42.8090448650540906783px,428.0904486505409067831px,42.8090448650540906783px,4.5,NA,NA,FF,0
2378,1,1,10,6.2.1,26-08-20,15:08:55,513963865,789715452,experiment,90,centermouse,4,centersquare,0,573,513963865,73,106,128,during,0,-1,-7.04394204,#AA00FF,-1,172.956058,#AAFF00,0,0,0,0,2,4081,-7.04394204,172.956058,172.956058,-7.04394204,82.95605796,262.956058,262.956058,82.95605796,NA,4.3224299065420561661px,370.1621621621621329723px,208.2162162162162246659px,567.3959944,86.4485981308411197688px,13594.391999999999825377px,9.90393038,4.3224299065420561661px,42.8090448650540906783px,428.0904486505409067831px,42.8090448650540906783px,4.5,NA,NA,FF,0
2379,1,1,10,6.2.1,26-08-20,15:08:55,513963865,789715452,experiment,91,centermouse,4,centersquare,0,591,513963865,74,205,162,during,0,-1,-12.83012188,#00A9FF,-1,167.1698781,#FFAA00,0,0,0,0,2,1650,-12.83012188,167.1698781,167.1698781,-12.83012188,77.16987812,257.1698781,257.1698781,77.16987812,NA,4.3224299065420561661px,370.1621621621621329723px,208.2162162162162246659px,567.3959944,86.4485981308411197688px,13594.391999999999825377px,9.90393038,4.3224299065420561661px,42.8090448650540906783px,428.0904486505409067831px,42.8090448650540906783px,4.5,NA,NA,FF,0
2381,1,1,10,6.2.1,26-08-20,15:08:55,513963865,789715452,experiment,93,centermouse,4,centersquare,0,471,513963865,76,245,174,during,0,-1,15.02044276,#00FF00,-1,195.0204428,#00FFA9,0,0,0,0,2,2050,15.02044276,195.0204428,195.0204428,15.02044276,105.0204428,285.0204428,285.0204428,105.0204428,NA,4.3224299065420561661px,370.1621621621621329723px,208.2162162162162246659px,567.3959944,86.4485981308411197688px,13594.391999999999825377px,9.90393038,4.3224299065420561661px,42.8090448650540906783px,428.0904486505409067831px,42.8090448650540906783px,4.5,NA,NA,FF,0
2382,1,1,10,6.2.1,26-08-20,15:08:55,513963865,789715452,experiment,94,centermouse,4,centersquare,0,545,513963865,77,116,171,during,0,-1,-12.13703232,#FF00AA,-1,167.8629677,#0000FF,0,0,0,0,2,1248,-12.13703232,167.8629677,167.8629677,-12.13703232,77.86296768,257.8629677,257.8629677,77.86296768,NA,4.3224299065420561661px,370.1621621621621329723px,208.2162162162162246659px,567.3959944,86.4485981308411197688px,13594.391999999999825377px,9.90393038,4.3224299065420561661px,42.8090448650540906783px,428.0904486505409067831px,42.8090448650540906783px,4.5,NA,NA,FF,0
2385,1,1,10,6.2.1,26-08-20,15:08:55,513963865,789715452,experiment,97,centermouse,4,centersquare,0,731,513963865,80,88,143,during,0,-1,-20.24097061,#FFAA00,-1,159.7590294,#00FF00,0,0,0,0,2,3236,-20.24097061,159.7590294,159.7590294,-20.24097061,69.75902939,249.7590294,249.7590294,69.75902939,NA,4.3224299065420561661px,370.1621621621621329723px,208.2162162162162246659px,567.3959944,86.4485981308411197688px,13594.391999999999825377px,9.90393038,4.3224299065420561661px,42.8090448650540906783px,428.0904486505409067831px,42.8090448650540906783px,4.5,NA,NA,FF,0
2388,1,1,10,6.2.1,26-08-20,15:08:55,513963865,789715452,experiment,100,centermouse,4,centersquare,0,458,513963865,83,183,25,during,0,-1,8.445873796,#FF00AA,-1,188.4458738,#AA00FF,0,0,0,0,2,1267,8.445873796,188.4458738,188.4458738,8.445873796,98.4458738,278.4458738,278.4458738,98.4458738,NA,4.3224299065420561661px,370.1621621621621329723px,208.2162162162162246659px,567.3959944,86.4485981308411197688px,13594.391999999999825377px,9.90393038,4.3224299065420561661px,42.8090448650540906783px,428.0904486505409067831px,42.8090448650540906783px,4.5,NA,NA,FF,0
2390,1,1,10,6.2.1,26-08-20,15:08:55,513963865,789715452,experiment,102,centermouse,4,centersquare,0,951,513963865,85,89,7,during,0,-1,-25.11683261,#00FFA9,-1,154.8831674,#00FF00,0,0,0,0,1,1560,-25.11683261,154.8831674,154.8831674,-25.11683261,64.88316739,244.8831674,244.8831674,64.88316739,NA,4.3224299065420561661px,370.1621621621621329723px,208.2162162162162246659px,567.3959944,86.4485981308411197688px,13594.391999999999825377px,9.90393038,4.3224299065420561661px,42.8090448650540906783px,428.0904486505409067831px,42.8090448650540906783px,4.5,NA,NA,FF,0
2396,1,1,10,6.2.1,26-08-20,15:08:55,513963865,789715452,experiment,108,centermouse,4,centersquare,0,775,513963865,91,219,100,during,0,-1,-11.06736509,#FF00AA,-1,168.9326349,#00FF00,0,0,0,0,1,5347,-11.06736509,168.9326349,168.9326349,-11.06736509,78.93263491,258.9326349,258.9326349,78.93263491,NA,4.3224299065420561661px,370.1621621621621329723px,208.2162162162162246659px,567.3959944,86.4485981308411197688px,13594.391999999999825377px,9.90393038,4.3224299065420561661px,42.8090448650540906783px,428.0904486505409067831px,42.8090448650540906783px,4.5,NA,NA,FF,0
2399,1,1,10,6.2.1,26-08-20,15:08:55,513963865,789715452,experiment,111,centermouse,4,centersquare,0,796,513963865,94,179,114,during,0,-1,-9.572493392,#0000FF,-1,170.4275066,#AAFF00,0,0,0,0,2,1058,-9.572493392,170.4275066,170.4275066,-9.572493392,80.42750661,260.4275066,260.4275066,80.42750661,NA,4.3224299065420561661px,370.1621621621621329723px,208.2162162162162246659px,567.3959944,86.4485981308411197688px,13594.391999999999825377px,9.90393038,4.3224299065420561661px,42.8090448650540906783px,428.0904486505409067831px,42.8090448650540906783px,4.5,NA,NA,FF,0
2404,1,1,10,6.2.1,26-08-20,15:08:55,513963865,789715452,experiment,116,centermouse,4,centersquare,0,418,513963865,99,229,240,during,0,-1,18.37496356,#FF00AA,-1,198.3749636,#00FFA9,0,0,0,0,2,894,18.37496356,198.3749636,198.3749636,18.37496356,108.3749636,288.3749636,288.3749636,108.3749636,NA,4.3224299065420561661px,370.1621621621621329723px,208.2162162162162246659px,567.3959944,86.4485981308411197688px,13594.391999999999825377px,9.90393038,4.3224299065420561661px,42.8090448650540906783px,428.0904486505409067831px,42.8090448650540906783px,4.5,NA,NA,FF,0
2405,1,1,10,6.2.1,26-08-20,15:08:55,513963865,789715452,experiment,117,centermouse,4,centersquare,0,607,513963865,100,213,146,during,0,-1,-26.41120681,#0000FF,-1,153.5887932,#FF00AA,0,0,0,0,2,2166,-26.41120681,153.5887932,153.5887932,-26.41120681,63.58879319,243.5887932,243.5887932,63.58879319,NA,4.3224299065420561661px,370.1621621621621329723px,208.2162162162162246659px,567.3959944,86.4485981308411197688px,13594.391999999999825377px,9.90393038,4.3224299065420561661px,42.8090448650540906783px,428.0904486505409067831px,42.8090448650540906783px,4.5,NA,NA,FF,0
2411,1,1,10,6.2.1,26-08-20,15:08:55,513963865,789715452,experiment,123,centermouse,4,centersquare,0,514,513963865,106,122,140,during,0,-1,23.88193237,#0000FF,-1,203.8819324,#00FFA9,0,0,0,0,2,4001,23.88193237,203.8819324,203.8819324,23.88193237,113.8819324,293.8819324,293.8819324,113.8819324,NA,4.3224299065420561661px,370.1621621621621329723px,208.2162162162162246659px,567.3959944,86.4485981308411197688px,13594.391999999999825377px,9.90393038,4.3224299065420561661px,42.8090448650540906783px,428.0904486505409067831px,42.8090448650540906783px,4.5,NA,NA,FF,0
2420,1,1,10,6.2.1,26-08-20,15:08:55,513963865,789715452,experiment,132,centermouse,4,centersquare,0,1178,513963865,113,185,41,during,0,-1,0.349449625,#FFAA00,-1,180.3494496,#00FFA9,0,0,0,0,3,4675,0.349449625,180.3494496,180.3494496,0.349449625,90.34944962,270.3494496,270.3494496,90.34944962,NA,4.3224299065420561661px,370.1621621621621329723px,208.2162162162162246659px,567.3959944,86.4485981308411197688px,13594.391999999999825377px,9.90393038,4.3224299065420561661px,42.8090448650540906783px,428.0904486505409067831px,42.8090448650540906783px,4.5,NA,NA,FF,0
2421,1,1,10,6.2.1,26-08-20,15:08:55,513963865,789715452,experiment,133,centermouse,4,centersquare,0,758,513963865,114,108,29,during,0,-1,-3.31837572,#00FFA9,-1,176.6816243,#AAFF00,0,0,0,0,2,3981,-3.31837572,176.6816243,176.6816243,-3.31837572,86.68162428,266.6816243,266.6816243,86.68162428,NA,4.3224299065420561661px,370.1621621621621329723px,208.2162162162162246659px,567.3959944,86.4485981308411197688px,13594.391999999999825377px,9.90393038,4.3224299065420561661px,42.8090448650540906783px,428.0904486505409067831px,42.8090448650540906783px,4.5,NA,NA,FF,0
2423,1,1,10,6.2.1,26-08-20,15:08:55,513963865,789715452,experiment,135,centermouse,4,centersquare,0,576,513963865,115,159,72,during,0,-1,-22.39386454,#AAFF00,-1,157.6061355,#FF00AA,0,0,0,0,2,1649,-22.39386454,157.6061355,157.6061355,-22.39386454,67.60613546,247.6061355,247.6061355,67.60613546,NA,4.3224299065420561661px,370.1621621621621329723px,208.2162162162162246659px,567.3959944,86.4485981308411197688px,13594.391999999999825377px,9.90393038,4.3224299065420561661px,42.8090448650540906783px,428.0904486505409067831px,42.8090448650540906783px,4.5,NA,NA,FF,0
2424,1,1,10,6.2.1,26-08-20,15:08:55,513963865,789715452,experiment,136,centermouse,4,centersquare,0,573,513963865,116,158,213,during,0,-1,-21.05348225,#FF00AA,-1,158.9465178,#00A9FF,0,0,0,0,2,963,-21.05348225,158.9465178,158.9465178,-21.05348225,68.94651775,248.9465178,248.9465178,68.94651775,NA,4.3224299065420561661px,370.1621621621621329723px,208.2162162162162246659px,567.3959944,86.4485981308411197688px,13594.391999999999825377px,9.90393038,4.3224299065420561661px,42.8090448650540906783px,428.0904486505409067831px,42.8090448650540906783px,4.5,NA,NA,FF,0
2427,1,1,10,6.2.1,26-08-20,15:08:55,513963865,789715452,experiment,139,centermouse,4,centersquare,0,959,513963865,119,171,47,during,0,-1,-8.187509733,#00FFA9,-1,171.8124903,#AA00FF,0,0,0,0,2,1819,-8.187509733,171.8124903,171.8124903,-8.187509733,81.81249027,261.8124903,261.8124903,81.81249027,NA,4.3224299065420561661px,370.1621621621621329723px,208.2162162162162246659px,567.3959944,86.4485981308411197688px,13594.391999999999825377px,9.90393038,4.3224299065420561661px,42.8090448650540906783px,428.0904486505409067831px,42.8090448650540906783px,4.5,NA,NA,FF,0
2428,1,1,10,6.2.1,26-08-20,15:08:55,513963865,789715452,experiment,140,centermouse,4,centersquare,0,722,513963865,120,99,94,during,0,-1,-7.54216636,#AA00FF,-1,172.4578336,#FFAA00,0,0,0,0,2,9025,-7.54216636,172.4578336,172.4578336,-7.54216636,82.45783364,262.4578336,262.4578336,82.45783364,NA,4.3224299065420561661px,370.1621621621621329723px,208.2162162162162246659px,567.3959944,86.4485981308411197688px,13594.391999999999825377px,9.90393038,4.3224299065420561661px,42.8090448650540906783px,428.0904486505409067831px,42.8090448650540906783px,4.5,NA,NA,FF,0
2430,1,1,10,6.2.1,26-08-20,15:08:55,513963865,789715452,experiment,142,centermouse,4,centersquare,0,565,513963865,122,133,124,during,0,-1,-22.78072135,#0000FF,-1,157.2192787,#FFAA00,0,0,0,0,2,1222,-22.78072135,157.2192787,157.2192787,-22.78072135,67.21927865,247.2192787,247.2192787,67.21927865,NA,4.3224299065420561661px,370.1621621621621329723px,208.2162162162162246659px,567.3959944,86.4485981308411197688px,13594.391999999999825377px,9.90393038,4.3224299065420561661px,42.8090448650540906783px,428.0904486505409067831px,42.8090448650540906783px,4.5,NA,NA,FF,0
2432,1,1,10,6.2.1,26-08-20,15:08:55,513963865,789715452,experiment,144,centermouse,4,centersquare,0,1325,513963865,124,194,99,during,0,-1,-15.72401981,#FF0000,-1,164.2759802,#00A9FF,0,0,0,0,3,11402,-15.72401981,164.2759802,164.2759802,-15.72401981,74.27598019,254.2759802,254.2759802,74.27598019,NA,4.3224299065420561661px,370.1621621621621329723px,208.2162162162162246659px,567.3959944,86.4485981308411197688px,13594.391999999999825377px,9.90393038,4.3224299065420561661px,42.8090448650540906783px,428.0904486505409067831px,42.8090448650540906783px,4.5,NA,NA,FF,0
2441,1,1,10,6.2.1,26-08-20,15:08:55,513963865,789715452,experiment,153,centermouse,4,centersquare,0,455,513963865,133,24,215,during,0,-1,3.480041733,#00FF00,-1,183.4800417,#0000FF,0,0,0,0,2,1918,3.480041733,183.4800417,183.4800417,3.480041733,93.48004173,273.4800417,273.4800417,93.48004173,NA,4.3224299065420561661px,370.1621621621621329723px,208.2162162162162246659px,567.3959944,86.4485981308411197688px,13594.391999999999825377px,9.90393038,4.3224299065420561661px,42.8090448650540906783px,428.0904486505409067831px,42.8090448650540906783px,4.5,NA,NA,FF,0
2442,1,1,10,6.2.1,26-08-20,15:08:55,513963865,789715452,experiment,154,centermouse,4,centersquare,0,443,513963865,134,201,177,during,0,-1,-29.01048012,#AA00FF,-1,150.9895199,#0000FF,0,0,0,0,2,821,-29.01048012,150.9895199,150.9895199,-29.01048012,60.98951988,240.9895199,240.9895199,60.98951988,NA,4.3224299065420561661px,370.1621621621621329723px,208.2162162162162246659px,567.3959944,86.4485981308411197688px,13594.391999999999825377px,9.90393038,4.3224299065420561661px,42.8090448650540906783px,428.0904486505409067831px,42.8090448650540906783px,4.5,NA,NA,FF,0
2447,1,1,10,6.2.1,26-08-20,15:08:55,513963865,789715452,experiment,159,centermouse,4,centersquare,0,461,513963865,139,166,85,during,0,-1,-20.31257985,#00FF00,-1,159.6874201,#00A9FF,0,0,0,0,2,809,-20.31257985,159.6874201,159.6874201,-20.31257985,69.68742015,249.6874201,249.6874201,69.68742015,NA,4.3224299065420561661px,370.1621621621621329723px,208.2162162162162246659px,567.3959944,86.4485981308411197688px,13594.391999999999825377px,9.90393038,4.3224299065420561661px,42.8090448650540906783px,428.0904486505409067831px,42.8090448650540906783px,4.5,NA,NA,FF,0
2449,1,1,10,6.2.1,26-08-20,15:08:55,513963865,789715452,experiment,161,centermouse,4,centersquare,0,544,513963865,141,112,40,during,0,-1,-8.102131276,#AAFF00,-1,171.8978687,#00FF00,0,0,0,0,1,1235,-8.102131276,171.8978687,171.8978687,-8.102131276,81.89786872,261.8978687,261.8978687,81.89786872,NA,4.3224299065420561661px,370.1621621621621329723px,208.2162162162162246659px,567.3959944,86.4485981308411197688px,13594.391999999999825377px,9.90393038,4.3224299065420561661px,42.8090448650540906783px,428.0904486505409067831px,42.8090448650540906783px,4.5,NA,NA,FF,0
2450,1,1,10,6.2.1,26-08-20,15:08:55,513963865,789715452,experiment,162,centermouse,4,centersquare,0,769,513963865,142,7,226,during,0,-1,3.976390854,#FF0000,-1,183.9763909,#0000FF,0,0,0,0,2,1878,3.976390854,183.9763909,183.9763909,3.976390854,93.97639085,273.9763909,273.9763909,93.97639085,NA,4.3224299065420561661px,370.1621621621621329723px,208.2162162162162246659px,567.3959944,86.4485981308411197688px,13594.391999999999825377px,9.90393038,4.3224299065420561661px,42.8090448650540906783px,428.0904486505409067831px,42.8090448650540906783px,4.5,NA,NA,FF,0
2451,1,1,10,6.2.1,26-08-20,15:08:55,513963865,789715452,experiment,163,centermouse,4,centersquare,0,507,513963865,143,42,192,during,0,-1,-18.77842677,#AA00FF,-1,161.2215732,#00FF00,0,0,0,0,2,741,-18.77842677,161.2215732,161.2215732,-18.77842677,71.22157323,251.2215732,251.2215732,71.22157323,NA,4.3224299065420561661px,370.1621621621621329723px,208.2162162162162246659px,567.3959944,86.4485981308411197688px,13594.391999999999825377px,9.90393038,4.3224299065420561661px,42.8090448650540906783px,428.0904486505409067831px,42.8090448650540906783px,4.5,NA,NA,FF,0
2454,1,1,10,6.2.1,26-08-20,15:08:55,513963865,789715452,experiment,166,centermouse,4,centersquare,0,495,513963865,146,59,71,during,0,-1,-9.555222103,#AAFF00,-1,170.4447779,#0000FF,0,0,0,0,2,2828,-9.555222103,170.4447779,170.4447779,-9.555222103,80.4447779,260.4447779,260.4447779,80.4447779,NA,4.3224299065420561661px,370.1621621621621329723px,208.2162162162162246659px,567.3959944,86.4485981308411197688px,13594.391999999999825377px,9.90393038,4.3224299065420561661px,42.8090448650540906783px,428.0904486505409067831px,42.8090448650540906783px,4.5,NA,NA,FF,0
2456,1,1,10,6.2.1,26-08-20,15:08:55,513963865,789715452,experiment,168,centermouse,4,centersquare,0,876,513963865,148,80,134,during,0,-1,23.87989629,#FF00AA,-1,203.8798963,#FF00AA,0,0,0,0,0,1046,23.87989629,203.8798963,203.8798963,23.87989629,113.8798963,293.8798963,293.8798963,113.8798963,NA,4.3224299065420561661px,370.1621621621621329723px,208.2162162162162246659px,567.3959944,86.4485981308411197688px,13594.391999999999825377px,9.90393038,4.3224299065420561661px,42.8090448650540906783px,428.0904486505409067831px,42.8090448650540906783px,4.5,NA,NA,FF,0
2458,1,1,10,6.2.1,26-08-20,15:08:55,513963865,789715452,experiment,170,centermouse,4,centersquare,0,1104,513963865,150,22,196,during,0,-1,-15.07560249,#00A9FF,-1,164.9243975,#00FFA9,0,0,0,0,2,2981,-15.07560249,164.9243975,164.9243975,-15.07560249,74.92439751,254.9243975,254.9243975,74.92439751,NA,4.3224299065420561661px,370.1621621621621329723px,208.2162162162162246659px,567.3959944,86.4485981308411197688px,13594.391999999999825377px,9.90393038,4.3224299065420561661px,42.8090448650540906783px,428.0904486505409067831px,42.8090448650540906783px,4.5,NA,NA,FF,0
2459,1,1,10,6.2.1,26-08-20,15:08:55,513963865,789715452,experiment,171,centermouse,4,centersquare,0,785,513963865,151,1,179,during,0,-1,28.15309812,#FFAA00,-1,208.1530981,#AA00FF,0,0,0,0,3,2178,28.15309812,208.1530981,208.1530981,28.15309812,118.1530981,298.1530981,298.1530981,118.1530981,NA,4.3224299065420561661px,370.1621621621621329723px,208.2162162162162246659px,567.3959944,86.4485981308411197688px,13594.391999999999825377px,9.90393038,4.3224299065420561661px,42.8090448650540906783px,428.0904486505409067831px,42.8090448650540906783px,4.5,NA,NA,FF,0
2462,1,1,10,6.2.1,26-08-20,15:08:55,513963865,789715452,experiment,174,centermouse,4,centersquare,0,461,513963865,154,50,88,during,0,-1,-16.20654876,#FFAA00,-1,163.7934512,#0000FF,0,0,0,0,2,1289,-16.20654876,163.7934512,163.7934512,-16.20654876,73.79345124,253.7934512,253.7934512,73.79345124,NA,4.3224299065420561661px,370.1621621621621329723px,208.2162162162162246659px,567.3959944,86.4485981308411197688px,13594.391999999999825377px,9.90393038,4.3224299065420561661px,42.8090448650540906783px,428.0904486505409067831px,42.8090448650540906783px,4.5,NA,NA,FF,0
2468,1,1,10,6.2.1,26-08-20,15:08:55,513963865,789715452,experiment,180,centermouse,4,centersquare,0,583,513963865,160,252,26,during,0,-1,-3.268439065,#AA00FF,-1,176.7315609,#00FFA9,0,0,0,0,3,2041,-3.268439065,176.7315609,176.7315609,-3.268439065,86.73156093,266.7315609,266.7315609,86.73156093,NA,4.3224299065420561661px,370.1621621621621329723px,208.2162162162162246659px,567.3959944,86.4485981308411197688px,13594.391999999999825377px,9.90393038,4.3224299065420561661px,42.8090448650540906783px,428.0904486505409067831px,42.8090448650540906783px,4.5,NA,NA,FF,0
2469,1,1,10,6.2.1,26-08-20,15:08:55,513963865,789715452,experiment,181,centermouse,4,centersquare,0,789,513963865,161,156,92,during,0,-1,7.890242352,#0000FF,-1,187.8902424,#0000FF,0,0,0,0,0,1002,7.890242352,187.8902424,187.8902424,7.890242352,97.89024235,277.8902424,277.8902424,97.89024235,NA,4.3224299065420561661px,370.1621621621621329723px,208.2162162162162246659px,567.3959944,86.4485981308411197688px,13594.391999999999825377px,9.90393038,4.3224299065420561661px,42.8090448650540906783px,428.0904486505409067831px,42.8090448650540906783px,4.5,NA,NA,FF,0
2470,1,1,10,6.2.1,26-08-20,15:08:55,513963865,789715452,experiment,182,centermouse,4,centersquare,0,665,513963865,162,111,212,during,0,-1,29.23368285,#00FFA9,-1,209.2336829,#00A9FF,0,0,0,0,1,1048,29.23368285,209.2336829,209.2336829,29.23368285,119.2336829,299.2336829,299.2336829,119.2336829,NA,4.3224299065420561661px,370.1621621621621329723px,208.2162162162162246659px,567.3959944,86.4485981308411197688px,13594.391999999999825377px,9.90393038,4.3224299065420561661px,42.8090448650540906783px,428.0904486505409067831px,42.8090448650540906783px,4.5,NA,NA,FF,0
2473,1,1,10,6.2.1,26-08-20,15:08:55,513963865,789715452,experiment,185,centermouse,4,centersquare,0,571,513963865,165,144,158,during,0,-1,19.30675199,#FFAA00,-1,199.306752,#FF0000,0,0,0,0,2,1194,19.30675199,199.306752,199.306752,19.30675199,109.306752,289.306752,289.306752,109.306752,NA,4.3224299065420561661px,370.1621621621621329723px,208.2162162162162246659px,567.3959944,86.4485981308411197688px,13594.391999999999825377px,9.90393038,4.3224299065420561661px,42.8090448650540906783px,428.0904486505409067831px,42.8090448650540906783px,4.5,NA,NA,FF,0
2474,1,1,10,6.2.1,26-08-20,15:08:55,513963865,789715452,experiment,186,centermouse,4,centersquare,0,628,513963865,166,5,152,during,0,-1,15.72476735,#0000FF,-1,195.7247674,#00FF00,0,0,0,0,2,807,15.72476735,195.7247674,195.7247674,15.72476735,105.7247674,285.7247674,285.7247674,105.7247674,NA,4.3224299065420561661px,370.1621621621621329723px,208.2162162162162246659px,567.3959944,86.4485981308411197688px,13594.391999999999825377px,9.90393038,4.3224299065420561661px,42.8090448650540906783px,428.0904486505409067831px,42.8090448650540906783px,4.5,NA,NA,FF,0
2476,1,1,10,6.2.1,26-08-20,15:08:55,513963865,789715452,experiment,188,centermouse,4,centersquare,0,621,513963865,168,61,175,during,0,-1,-13.4939052,#AAFF00,-1,166.5060948,#FF0000,0,0,0,0,2,850,-13.4939052,166.5060948,166.5060948,-13.4939052,76.5060948,256.5060948,256.5060948,76.5060948,NA,4.3224299065420561661px,370.1621621621621329723px,208.2162162162162246659px,567.3959944,86.4485981308411197688px,13594.391999999999825377px,9.90393038,4.3224299065420561661px,42.8090448650540906783px,428.0904486505409067831px,42.8090448650540906783px,4.5,NA,NA,FF,0
2487,1,1,10,6.2.1,26-08-20,15:08:55,513963865,789715452,experiment,199,centermouse,4,centersquare,0,1784,513963865,179,94,84,during,0,-1,-3.090191636,#FF0000,-1,176.9098084,#AA00FF,0,0,0,0,3,4874,-3.090191636,176.9098084,176.9098084,-3.090191636,86.90980836,266.9098084,266.9098084,86.90980836,NA,4.3224299065420561661px,370.1621621621621329723px,208.2162162162162246659px,567.3959944,86.4485981308411197688px,13594.391999999999825377px,9.90393038,4.3224299065420561661px,42.8090448650540906783px,428.0904486505409067831px,42.8090448650540906783px,4.5,NA,NA,FF,0
2490,1,1,10,6.2.1,26-08-20,15:08:55,513963865,789715452,experiment,202,centermouse,4,centersquare,0,437,513963865,182,81,8,during,0,-1,13.09506481,#FF0000,-1,193.0950648,#00FFA9,0,0,0,0,2,3415,13.09506481,193.0950648,193.0950648,13.09506481,103.0950648,283.0950648,283.0950648,103.0950648,NA,4.3224299065420561661px,370.1621621621621329723px,208.2162162162162246659px,567.3959944,86.4485981308411197688px,13594.391999999999825377px,9.90393038,4.3224299065420561661px,42.8090448650540906783px,428.0904486505409067831px,42.8090448650540906783px,4.5,NA,NA,FF,0
2492,1,1,10,6.2.1,26-08-20,15:08:55,513963865,789715452,experiment,204,centermouse,4,centersquare,0,431,513963865,184,119,56,during,0,-1,-15.11938103,#FF0000,-1,164.880619,#FFAA00,0,0,0,0,2,1091,-15.11938103,164.880619,164.880619,-15.11938103,74.88061897,254.880619,254.880619,74.88061897,NA,4.3224299065420561661px,370.1621621621621329723px,208.2162162162162246659px,567.3959944,86.4485981308411197688px,13594.391999999999825377px,9.90393038,4.3224299065420561661px,42.8090448650540906783px,428.0904486505409067831px,42.8090448650540906783px,4.5,NA,NA,FF,0
2493,1,1,10,6.2.1,26-08-20,15:08:55,513963865,789715452,experiment,205,centermouse,4,centersquare,0,549,513963865,185,174,194,during,0,-1,-25.69653822,#FFAA00,-1,154.3034618,#FFAA00,0,0,0,0,0,755,-25.69653822,154.3034618,154.3034618,-25.69653822,64.30346178,244.3034618,244.3034618,64.30346178,NA,4.3224299065420561661px,370.1621621621621329723px,208.2162162162162246659px,567.3959944,86.4485981308411197688px,13594.391999999999825377px,9.90393038,4.3224299065420561661px,42.8090448650540906783px,428.0904486505409067831px,42.8090448650540906783px,4.5,NA,NA,FF,0
2494,1,1,10,6.2.1,26-08-20,15:08:55,513963865,789715452,experiment,206,centermouse,4,centersquare,0,483,513963865,186,164,98,during,0,-1,22.45652601,#FFAA00,-1,202.456526,#FF00AA,0,0,0,0,2,1198,22.45652601,202.456526,202.456526,22.45652601,112.456526,292.456526,292.456526,112.456526,NA,4.3224299065420561661px,370.1621621621621329723px,208.2162162162162246659px,567.3959944,86.4485981308411197688px,13594.391999999999825377px,9.90393038,4.3224299065420561661px,42.8090448650540906783px,428.0904486505409067831px,42.8090448650540906783px,4.5,NA,NA,FF,0
2496,1,1,10,6.2.1,26-08-20,15:08:55,513963865,789715452,experiment,208,centermouse,4,centersquare,0,444,513963865,188,191,89,during,0,-1,-26.1755685,#AA00FF,-1,153.8244315,#FF0000,0,0,0,0,2,1156,-26.1755685,153.8244315,153.8244315,-26.1755685,63.8244315,243.8244315,243.8244315,63.8244315,NA,4.3224299065420561661px,370.1621621621621329723px,208.2162162162162246659px,567.3959944,86.4485981308411197688px,13594.391999999999825377px,9.90393038,4.3224299065420561661px,42.8090448650540906783px,428.0904486505409067831px,42.8090448650540906783px,4.5,NA,NA,FF,0
2497,1,1,10,6.2.1,26-08-20,15:08:55,513963865,789715452,experiment,209,centermouse,4,centersquare,0,471,513963865,189,54,46,during,0,-1,-8.130150679,#FF0000,-1,171.8698493,#AAFF00,0,0,0,0,2,918,-8.130150679,171.8698493,171.8698493,-8.130150679,81.86984932,261.8698493,261.8698493,81.86984932,NA,4.3224299065420561661px,370.1621621621621329723px,208.2162162162162246659px,567.3959944,86.4485981308411197688px,13594.391999999999825377px,9.90393038,4.3224299065420561661px,42.8090448650540906783px,428.0904486505409067831px,42.8090448650540906783px,4.5,NA,NA,FF,0
2499,1,1,10,6.2.1,26-08-20,15:08:55,513963865,789715452,experiment,211,centermouse,4,centersquare,0,626,513963865,191,165,168,during,0,-1,-19.4025155,#0000FF,-1,160.5974845,#00A9FF,0,0,0,0,1,952,-19.4025155,160.5974845,160.5974845,-19.4025155,70.5974845,250.5974845,250.5974845,70.5974845,NA,4.3224299065420561661px,370.1621621621621329723px,208.2162162162162246659px,567.3959944,86.4485981308411197688px,13594.391999999999825377px,9.90393038,4.3224299065420561661px,42.8090448650540906783px,428.0904486505409067831px,42.8090448650540906783px,4.5,NA,NA,FF,0
2500,1,1,10,6.2.1,26-08-20,15:08:55,513963865,789715452,experiment,212,centermouse,4,centersquare,0,518,513963865,192,186,217,during,0,-1,-24.12111078,#AAFF00,-1,155.8788892,#00FFA9,0,0,0,0,1,734,-24.12111078,155.8788892,155.8788892,-24.12111078,65.87888922,245.8788892,245.8788892,65.87888922,NA,4.3224299065420561661px,370.1621621621621329723px,208.2162162162162246659px,567.3959944,86.4485981308411197688px,13594.391999999999825377px,9.90393038,4.3224299065420561661px,42.8090448650540906783px,428.0904486505409067831px,42.8090448650540906783px,4.5,NA,NA,FF,0
2503,1,1,10,6.2.1,26-08-20,15:08:55,513963865,789715452,experiment,215,centermouse,4,centersquare,0,1003,513963865,195,140,112,during,0,-1,23.84394182,#00A9FF,-1,203.8439418,#AA00FF,0,0,0,0,1,1482,23.84394182,203.8439418,203.8439418,23.84394182,113.8439418,293.8439418,293.8439418,113.8439418,NA,4.3224299065420561661px,370.1621621621621329723px,208.2162162162162246659px,567.3959944,86.4485981308411197688px,13594.391999999999825377px,9.90393038,4.3224299065420561661px,42.8090448650540906783px,428.0904486505409067831px,42.8090448650540906783px,4.5,NA,NA,FF,0
2504,1,1,10,6.2.1,26-08-20,15:08:55,513963865,789715452,experiment,216,centermouse,4,centersquare,0,526,513963865,196,40,156,during,0,-1,2.196780418,#FF00AA,-1,182.1967804,#AAFF00,0,0,0,0,2,1049,2.196780418,182.1967804,182.1967804,2.196780418,92.19678042,272.1967804,272.1967804,92.19678042,NA,4.3224299065420561661px,370.1621621621621329723px,208.2162162162162246659px,567.3959944,86.4485981308411197688px,13594.391999999999825377px,9.90393038,4.3224299065420561661px,42.8090448650540906783px,428.0904486505409067831px,42.8090448650540906783px,4.5,NA,NA,FF,0
2505,1,1,10,6.2.1,26-08-20,15:08:55,513963865,789715452,experiment,217,centermouse,4,centersquare,0,468,513963865,197,69,103,during,0,-1,-20.29123657,#0000FF,-1,159.7087634,#AA00FF,0,0,0,0,2,1300,-20.29123657,159.7087634,159.7087634,-20.29123657,69.70876343,249.7087634,249.7087634,69.70876343,NA,4.3224299065420561661px,370.1621621621621329723px,208.2162162162162246659px,567.3959944,86.4485981308411197688px,13594.391999999999825377px,9.90393038,4.3224299065420561661px,42.8090448650540906783px,428.0904486505409067831px,42.8090448650540906783px,4.5,NA,NA,FF,0
2513,1,1,10,6.2.1,26-08-20,15:08:55,513963865,789715452,experiment,225,centermouse,4,centersquare,0,507,513963865,205,251,53,during,0,-1,-8.631920768,#AA00FF,-1,171.3680792,#FF00AA,0,0,0,0,1,1173,-8.631920768,171.3680792,171.3680792,-8.631920768,81.36807923,261.3680792,261.3680792,81.36807923,NA,4.3224299065420561661px,370.1621621621621329723px,208.2162162162162246659px,567.3959944,86.4485981308411197688px,13594.391999999999825377px,9.90393038,4.3224299065420561661px,42.8090448650540906783px,428.0904486505409067831px,42.8090448650540906783px,4.5,NA,NA,FF,0
2514,1,1,10,6.2.1,26-08-20,15:08:55,513963865,789715452,experiment,226,centermouse,4,centersquare,0,640,513963865,206,44,11,during,0,-1,1.712204812,#AA00FF,-1,181.7122048,#AA00FF,0,0,0,0,0,787,1.712204812,181.7122048,181.7122048,1.712204812,91.71220481,271.7122048,271.7122048,91.71220481,NA,4.3224299065420561661px,370.1621621621621329723px,208.2162162162162246659px,567.3959944,86.4485981308411197688px,13594.391999999999825377px,9.90393038,4.3224299065420561661px,42.8090448650540906783px,428.0904486505409067831px,42.8090448650540906783px,4.5,NA,NA,FF,0
2524,1,1,10,6.2.1,26-08-20,15:08:55,513963865,789715452,experiment,236,centermouse,4,centersquare,0,616,513963865,216,184,207,during,0,-1,25.50303994,#00A9FF,-1,205.5030399,#FF0000,0,0,0,0,2,7294,25.50303994,205.5030399,205.5030399,25.50303994,115.5030399,295.5030399,295.5030399,115.5030399,NA,4.3224299065420561661px,370.1621621621621329723px,208.2162162162162246659px,567.3959944,86.4485981308411197688px,13594.391999999999825377px,9.90393038,4.3224299065420561661px,42.8090448650540906783px,428.0904486505409067831px,42.8090448650540906783px,4.5,NA,NA,FF,0
2526,1,1,10,6.2.1,26-08-20,15:08:55,513963865,789715452,experiment,238,centermouse,4,centersquare,0,722,513963865,218,58,119,during,0,-1,10.06912426,#AAFF00,-1,190.0691243,#FFAA00,0,0,0,0,1,943,10.06912426,190.0691243,190.0691243,10.06912426,100.0691243,280.0691243,280.0691243,100.0691243,NA,4.3224299065420561661px,370.1621621621621329723px,208.2162162162162246659px,567.3959944,86.4485981308411197688px,13594.391999999999825377px,9.90393038,4.3224299065420561661px,42.8090448650540906783px,428.0904486505409067831px,42.8090448650540906783px,4.5,NA,NA,FF,0
2527,1,1,10,6.2.1,26-08-20,15:08:55,513963865,789715452,experiment,239,centermouse,4,centersquare,0,570,513963865,219,17,65,during,0,-1,-15.60583278,#00FF00,-1,164.3941672,#FFAA00,0,0,0,0,1,810,-15.60583278,164.3941672,164.3941672,-15.60583278,74.39416722,254.3941672,254.3941672,74.39416722,NA,4.3224299065420561661px,370.1621621621621329723px,208.2162162162162246659px,567.3959944,86.4485981308411197688px,13594.391999999999825377px,9.90393038,4.3224299065420561661px,42.8090448650540906783px,428.0904486505409067831px,42.8090448650540906783px,4.5,NA,NA,FF,0
2529,1,1,10,6.2.1,26-08-20,15:08:55,513963865,789715452,experiment,241,centermouse,4,centersquare,0,529,513963865,221,172,180,during,0,-1,3.169619891,#00FF00,-1,183.1696199,#FF00AA,0,0,0,0,2,964,3.169619891,183.1696199,183.1696199,3.169619891,93.16961989,273.1696199,273.1696199,93.16961989,NA,4.3224299065420561661px,370.1621621621621329723px,208.2162162162162246659px,567.3959944,86.4485981308411197688px,13594.391999999999825377px,9.90393038,4.3224299065420561661px,42.8090448650540906783px,428.0904486505409067831px,42.8090448650540906783px,4.5,NA,NA,FF,0
2530,1,1,10,6.2.1,26-08-20,15:08:55,513963865,789715452,experiment,242,centermouse,4,centersquare,0,660,513963865,222,51,16,during,0,-1,18.04969134,#00FF00,-1,198.0496913,#00FF00,0,0,0,0,0,1476,18.04969134,198.0496913,198.0496913,18.04969134,108.0496913,288.0496913,288.0496913,108.0496913,NA,4.3224299065420561661px,370.1621621621621329723px,208.2162162162162246659px,567.3959944,86.4485981308411197688px,13594.391999999999825377px,9.90393038,4.3224299065420561661px,42.8090448650540906783px,428.0904486505409067831px,42.8090448650540906783px,4.5,NA,NA,FF,0
2537,1,1,10,6.2.1,26-08-20,15:08:55,513963865,789715452,experiment,249,centermouse,4,centersquare,0,619,513963865,228,41,227,during,0,-1,-16.95378064,#0000FF,-1,163.0462194,#FF0000,0,0,0,0,5,3926,-16.95378064,163.0462194,163.0462194,-16.95378064,73.04621936,253.0462194,253.0462194,73.04621936,NA,4.3224299065420561661px,370.1621621621621329723px,208.2162162162162246659px,567.3959944,86.4485981308411197688px,13594.391999999999825377px,9.90393038,4.3224299065420561661px,42.8090448650540906783px,428.0904486505409067831px,42.8090448650540906783px,4.5,NA,NA,FF,0
2541,1,1,10,6.2.1,26-08-20,15:08:55,513963865,789715452,experiment,253,centermouse,4,centersquare,0,592,513963865,232,13,145,during,0,-1,-20.27702755,#00FF00,-1,159.7229724,#AAFF00,0,0,0,0,0,2536,-20.27702755,159.7229724,159.7229724,-20.27702755,69.72297245,249.7229724,249.7229724,69.72297245,NA,4.3224299065420561661px,370.1621621621621329723px,208.2162162162162246659px,567.3959944,86.4485981308411197688px,13594.391999999999825377px,9.90393038,4.3224299065420561661px,42.8090448650540906783px,428.0904486505409067831px,42.8090448650540906783px,4.5,NA,NA,FF,0
2544,1,1,10,6.2.1,26-08-20,15:08:55,513963865,789715452,experiment,256,centermouse,4,centersquare,0,644,513963865,234,141,224,during,0,-1,-8.287801481,#AAFF00,-1,171.7121985,#AAFF00,0,0,0,0,0,789,-8.287801481,171.7121985,171.7121985,-8.287801481,81.71219852,261.7121985,261.7121985,81.71219852,NA,4.3224299065420561661px,370.1621621621621329723px,208.2162162162162246659px,567.3959944,86.4485981308411197688px,13594.391999999999825377px,9.90393038,4.3224299065420561661px,42.8090448650540906783px,428.0904486505409067831px,42.8090448650540906783px,4.5,NA,NA,FF,0
2548,1,1,10,6.2.1,26-08-20,15:08:55,513963865,789715452,experiment,260,centermouse,4,centersquare,0,598,513963865,238,47,66,during,0,-1,17.39375552,#00FF00,-1,197.3937555,#FF0000,0,0,0,0,2,2591,17.39375552,197.3937555,197.3937555,17.39375552,107.3937555,287.3937555,287.3937555,107.3937555,NA,4.3224299065420561661px,370.1621621621621329723px,208.2162162162162246659px,567.3959944,86.4485981308411197688px,13594.391999999999825377px,9.90393038,4.3224299065420561661px,42.8090448650540906783px,428.0904486505409067831px,42.8090448650540906783px,4.5,NA,NA,FF,0
2551,1,1,10,6.2.1,26-08-20,15:08:55,513963865,789715452,experiment,263,centermouse,4,centersquare,0,564,513963865,241,147,82,during,0,-1,-5.424443822,#00FFA9,-1,174.5755562,#00FFA9,0,0,0,0,0,1286,-5.424443822,174.5755562,174.5755562,-5.424443822,84.57555618,264.5755562,264.5755562,84.57555618,NA,4.3224299065420561661px,370.1621621621621329723px,208.2162162162162246659px,567.3959944,86.4485981308411197688px,13594.391999999999825377px,9.90393038,4.3224299065420561661px,42.8090448650540906783px,428.0904486505409067831px,42.8090448650540906783px,4.5,NA,NA,FF,0
2558,1,1,10,6.2.1,26-08-20,21:14:22,452832938,17909613,experiment,17,centermouse,4,centersquare,0,798,452832938,4,227,11,during,0,-1,-3.207313449,#AA00FF,-1,176.7926866,#AA00FF,0,0,0,0,0,1499,-3.207313449,176.7926866,176.7926866,-3.207313449,86.79268655,266.7926866,266.7926866,86.79268655,NA,5.9579439252336454658px,268.5490196078430926718px,151.0588235294117396279px,404.9287057,119.158878504672912868px,13594.391999999999825377px,7.068054321,5.9579439252336454658px,42.1110713074716898063px,421.1107130747168980633px,42.1110713074716898063px,4.5,NA,NA,FF,0
2567,1,1,10,6.2.1,26-08-20,21:14:22,452832938,17909613,experiment,26,centermouse,4,centersquare,0,470,452832938,13,34,240,during,0,-1,-27.23449536,#FF00AA,-1,152.7655046,#00FFA9,0,0,0,0,5,1041,-27.23449536,152.7655046,152.7655046,-27.23449536,62.76550464,242.7655046,242.7655046,62.76550464,NA,5.9579439252336454658px,268.5490196078430926718px,151.0588235294117396279px,404.9287057,119.158878504672912868px,13594.391999999999825377px,7.068054321,5.9579439252336454658px,42.1110713074716898063px,421.1107130747168980633px,42.1110713074716898063px,4.5,NA,NA,FF,0
2569,1,1,10,6.2.1,26-08-20,21:14:22,452832938,17909613,experiment,28,centermouse,4,centersquare,0,641,452832938,15,167,25,during,0,-1,23.71648669,#FF00AA,-1,203.7164867,#AA00FF,0,0,0,0,2,960,23.71648669,203.7164867,203.7164867,23.71648669,113.7164867,293.7164867,293.7164867,113.7164867,NA,5.9579439252336454658px,268.5490196078430926718px,151.0588235294117396279px,404.9287057,119.158878504672912868px,13594.391999999999825377px,7.068054321,5.9579439252336454658px,42.1110713074716898063px,421.1107130747168980633px,42.1110713074716898063px,4.5,NA,NA,FF,0
2571,1,1,10,6.2.1,26-08-20,21:14:22,452832938,17909613,experiment,30,centermouse,4,centersquare,0,933,452832938,17,190,227,during,0,-1,-8.642125581,#0000FF,-1,171.3578744,#FF0000,0,0,0,0,6,715,-8.642125581,171.3578744,171.3578744,-8.642125581,81.35787442,261.3578744,261.3578744,81.35787442,NA,5.9579439252336454658px,268.5490196078430926718px,151.0588235294117396279px,404.9287057,119.158878504672912868px,13594.391999999999825377px,7.068054321,5.9579439252336454658px,42.1110713074716898063px,421.1107130747168980633px,42.1110713074716898063px,4.5,NA,NA,FF,0
2575,1,1,10,6.2.1,26-08-20,21:14:22,452832938,17909613,experiment,34,centermouse,4,centersquare,0,278,452832938,21,10,72,during,0,-1,10.25915223,#AAFF00,-1,190.2591522,#FF00AA,0,0,0,0,4,843,10.25915223,190.2591522,190.2591522,10.25915223,100.2591522,280.2591522,280.2591522,100.2591522,NA,5.9579439252336454658px,268.5490196078430926718px,151.0588235294117396279px,404.9287057,119.158878504672912868px,13594.391999999999825377px,7.068054321,5.9579439252336454658px,42.1110713074716898063px,421.1107130747168980633px,42.1110713074716898063px,4.5,NA,NA,FF,0
2576,1,1,10,6.2.1,26-08-20,21:14:22,452832938,17909613,experiment,35,centermouse,4,centersquare,0,302,452832938,22,252,99,during,0,-1,-3.647635959,#FF0000,-1,176.352364,#00A9FF,0,0,0,0,5,557,-3.647635959,176.352364,176.352364,-3.647635959,86.35236404,266.352364,266.352364,86.35236404,NA,5.9579439252336454658px,268.5490196078430926718px,151.0588235294117396279px,404.9287057,119.158878504672912868px,13594.391999999999825377px,7.068054321,5.9579439252336454658px,42.1110713074716898063px,421.1107130747168980633px,42.1110713074716898063px,4.5,NA,NA,FF,0
2580,1,1,10,6.2.1,26-08-20,21:14:22,452832938,17909613,experiment,39,centermouse,4,centersquare,0,319,452832938,26,152,118,during,0,-1,1.827237311,#FFAA00,-1,181.8272373,#00A9FF,0,0,0,0,3,726,1.827237311,181.8272373,181.8272373,1.827237311,91.82723731,271.8272373,271.8272373,91.82723731,NA,5.9579439252336454658px,268.5490196078430926718px,151.0588235294117396279px,404.9287057,119.158878504672912868px,13594.391999999999825377px,7.068054321,5.9579439252336454658px,42.1110713074716898063px,421.1107130747168980633px,42.1110713074716898063px,4.5,NA,NA,FF,0
2583,1,1,10,6.2.1,26-08-20,21:14:22,452832938,17909613,experiment,42,centermouse,4,centersquare,0,378,452832938,29,176,29,during,0,-1,-25.33625834,#00FFA9,-1,154.6637417,#AAFF00,0,0,0,0,2,987,-25.33625834,154.6637417,154.6637417,-25.33625834,64.66374166,244.6637417,244.6637417,64.66374166,NA,5.9579439252336454658px,268.5490196078430926718px,151.0588235294117396279px,404.9287057,119.158878504672912868px,13594.391999999999825377px,7.068054321,5.9579439252336454658px,42.1110713074716898063px,421.1107130747168980633px,42.1110713074716898063px,4.5,NA,NA,FF,0
2588,1,1,10,6.2.1,26-08-20,21:14:22,452832938,17909613,experiment,47,centermouse,4,centersquare,0,382,452832938,34,215,152,during,0,-1,13.55127618,#0000FF,-1,193.5512762,#00FF00,0,0,0,0,4,807,13.55127618,193.5512762,193.5512762,13.55127618,103.5512762,283.5512762,283.5512762,103.5512762,NA,5.9579439252336454658px,268.5490196078430926718px,151.0588235294117396279px,404.9287057,119.158878504672912868px,13594.391999999999825377px,7.068054321,5.9579439252336454658px,42.1110713074716898063px,421.1107130747168980633px,42.1110713074716898063px,4.5,NA,NA,FF,0
2591,1,1,10,6.2.1,26-08-20,21:14:22,452832938,17909613,experiment,50,centermouse,4,centersquare,0,784,452832938,37,203,56,during,0,-1,20.49430527,#FF0000,-1,200.4943053,#FFAA00,0,0,0,0,5,670,20.49430527,200.4943053,200.4943053,20.49430527,110.4943053,290.4943053,290.4943053,110.4943053,NA,5.9579439252336454658px,268.5490196078430926718px,151.0588235294117396279px,404.9287057,119.158878504672912868px,13594.391999999999825377px,7.068054321,5.9579439252336454658px,42.1110713074716898063px,421.1107130747168980633px,42.1110713074716898063px,4.5,NA,NA,FF,0
2592,1,1,10,6.2.1,26-08-20,21:14:22,452832938,17909613,experiment,51,centermouse,4,centersquare,0,446,452832938,38,239,156,during,0,-1,8.980487408,#FF00AA,-1,188.9804874,#AAFF00,0,0,0,0,5,699,8.980487408,188.9804874,188.9804874,8.980487408,98.98048741,278.9804874,278.9804874,98.98048741,NA,5.9579439252336454658px,268.5490196078430926718px,151.0588235294117396279px,404.9287057,119.158878504672912868px,13594.391999999999825377px,7.068054321,5.9579439252336454658px,42.1110713074716898063px,421.1107130747168980633px,42.1110713074716898063px,4.5,NA,NA,FF,0
2597,1,1,10,6.2.1,26-08-20,21:14:22,452832938,17909613,experiment,56,centermouse,4,centersquare,0,403,452832938,43,121,213,during,0,-1,8.117668768,#FF00AA,-1,188.1176688,#00A9FF,0,0,0,0,5,1013,8.117668768,188.1176688,188.1176688,8.117668768,98.11766877,278.1176688,278.1176688,98.11766877,NA,5.9579439252336454658px,268.5490196078430926718px,151.0588235294117396279px,404.9287057,119.158878504672912868px,13594.391999999999825377px,7.068054321,5.9579439252336454658px,42.1110713074716898063px,421.1107130747168980633px,42.1110713074716898063px,4.5,NA,NA,FF,0
2601,1,1,10,6.2.1,26-08-20,21:14:22,452832938,17909613,experiment,60,centermouse,4,centersquare,0,327,452832938,47,8,85,during,0,-1,-16.99249495,#00FF00,-1,163.0075051,#00A9FF,0,0,0,0,3,1192,-16.99249495,163.0075051,163.0075051,-16.99249495,73.00750505,253.0075051,253.0075051,73.00750505,NA,5.9579439252336454658px,268.5490196078430926718px,151.0588235294117396279px,404.9287057,119.158878504672912868px,13594.391999999999825377px,7.068054321,5.9579439252336454658px,42.1110713074716898063px,421.1107130747168980633px,42.1110713074716898063px,4.5,NA,NA,FF,0
2610,1,1,10,6.2.1,26-08-20,21:14:22,452832938,17909613,experiment,69,centermouse,4,centersquare,0,341,452832938,55,114,16,during,0,-1,-9.728609133,#00FF00,-1,170.2713909,#00FF00,0,0,0,0,0,673,-9.728609133,170.2713909,170.2713909,-9.728609133,80.27139087,260.2713909,260.2713909,80.27139087,NA,5.9579439252336454658px,268.5490196078430926718px,151.0588235294117396279px,404.9287057,119.158878504672912868px,13594.391999999999825377px,7.068054321,5.9579439252336454658px,42.1110713074716898063px,421.1107130747168980633px,42.1110713074716898063px,4.5,NA,NA,FF,0
2612,1,1,10,6.2.1,26-08-20,21:14:22,452832938,17909613,experiment,71,centermouse,4,centersquare,0,488,452832938,57,220,154,during,0,-1,1.767529452,#00FFA9,-1,181.7675295,#0000FF,0,0,0,0,3,1152,1.767529452,181.7675295,181.7675295,1.767529452,91.76752945,271.7675295,271.7675295,91.76752945,NA,5.9579439252336454658px,268.5490196078430926718px,151.0588235294117396279px,404.9287057,119.158878504672912868px,13594.391999999999825377px,7.068054321,5.9579439252336454658px,42.1110713074716898063px,421.1107130747168980633px,42.1110713074716898063px,4.5,NA,NA,FF,0
2614,1,1,10,6.2.1,26-08-20,21:14:22,452832938,17909613,experiment,73,centermouse,4,centersquare,0,300,452832938,59,178,103,during,0,-1,-23.73679605,#0000FF,-1,156.2632039,#AA00FF,0,0,0,0,4,865,-23.73679605,156.2632039,156.2632039,-23.73679605,66.26320395,246.2632039,246.2632039,66.26320395,NA,5.9579439252336454658px,268.5490196078430926718px,151.0588235294117396279px,404.9287057,119.158878504672912868px,13594.391999999999825377px,7.068054321,5.9579439252336454658px,42.1110713074716898063px,421.1107130747168980633px,42.1110713074716898063px,4.5,NA,NA,FF,0
2615,1,1,10,6.2.1,26-08-20,21:14:22,452832938,17909613,experiment,74,centermouse,4,centersquare,0,369,452832938,60,124,128,during,0,-1,-25.50273292,#AA00FF,-1,154.4972671,#AAFF00,0,0,0,0,6,675,-25.50273292,154.4972671,154.4972671,-25.50273292,64.49726708,244.4972671,244.4972671,64.49726708,NA,5.9579439252336454658px,268.5490196078430926718px,151.0588235294117396279px,404.9287057,119.158878504672912868px,13594.391999999999825377px,7.068054321,5.9579439252336454658px,42.1110713074716898063px,421.1107130747168980633px,42.1110713074716898063px,4.5,NA,NA,FF,0
2616,1,1,10,6.2.1,26-08-20,21:14:22,452832938,17909613,experiment,75,centermouse,4,centersquare,0,349,452832938,61,166,138,during,0,-1,-9.414799521,#FFAA00,-1,170.5852005,#AAFF00,0,0,0,0,3,740,-9.414799521,170.5852005,170.5852005,-9.414799521,80.58520048,260.5852005,260.5852005,80.58520048,NA,5.9579439252336454658px,268.5490196078430926718px,151.0588235294117396279px,404.9287057,119.158878504672912868px,13594.391999999999825377px,7.068054321,5.9579439252336454658px,42.1110713074716898063px,421.1107130747168980633px,42.1110713074716898063px,4.5,NA,NA,FF,0
2617,1,1,10,6.2.1,26-08-20,21:14:22,452832938,17909613,experiment,76,centermouse,4,centersquare,0,322,452832938,62,116,207,during,0,-1,-20.23768196,#00A9FF,-1,159.762318,#FF0000,0,0,0,0,5,906,-20.23768196,159.762318,159.762318,-20.23768196,69.76231804,249.762318,249.762318,69.76231804,NA,5.9579439252336454658px,268.5490196078430926718px,151.0588235294117396279px,404.9287057,119.158878504672912868px,13594.391999999999825377px,7.068054321,5.9579439252336454658px,42.1110713074716898063px,421.1107130747168980633px,42.1110713074716898063px,4.5,NA,NA,FF,0
2623,1,1,10,6.2.1,26-08-20,21:14:22,452832938,17909613,experiment,82,centermouse,4,centersquare,0,269,452832938,67,180,182,during,0,-1,1.195851399,#00A9FF,-1,181.1958514,#0000FF,0,0,0,0,1,1271,1.195851399,181.1958514,181.1958514,1.195851399,91.1958514,271.1958514,271.1958514,91.1958514,NA,5.9579439252336454658px,268.5490196078430926718px,151.0588235294117396279px,404.9287057,119.158878504672912868px,13594.391999999999825377px,7.068054321,5.9579439252336454658px,42.1110713074716898063px,421.1107130747168980633px,42.1110713074716898063px,4.5,NA,NA,FF,0
2624,1,1,10,6.2.1,26-08-20,21:14:22,452832938,17909613,experiment,83,centermouse,4,centersquare,0,312,452832938,68,127,174,during,0,-1,-13.77035572,#00FF00,-1,166.2296443,#00FFA9,0,0,0,0,1,670,-13.77035572,166.2296443,166.2296443,-13.77035572,76.22964428,256.2296443,256.2296443,76.22964428,NA,5.9579439252336454658px,268.5490196078430926718px,151.0588235294117396279px,404.9287057,119.158878504672912868px,13594.391999999999825377px,7.068054321,5.9579439252336454658px,42.1110713074716898063px,421.1107130747168980633px,42.1110713074716898063px,4.5,NA,NA,FF,0
2625,1,1,10,6.2.1,26-08-20,21:14:22,452832938,17909613,experiment,84,centermouse,4,centersquare,0,321,452832938,69,91,53,during,0,-1,25.56425897,#AA00FF,-1,205.564259,#FF00AA,0,0,0,0,2,894,25.56425897,205.564259,205.564259,25.56425897,115.564259,295.564259,295.564259,115.564259,NA,5.9579439252336454658px,268.5490196078430926718px,151.0588235294117396279px,404.9287057,119.158878504672912868px,13594.391999999999825377px,7.068054321,5.9579439252336454658px,42.1110713074716898063px,421.1107130747168980633px,42.1110713074716898063px,4.5,NA,NA,FF,0
2626,1,1,10,6.2.1,26-08-20,21:14:22,452832938,17909613,experiment,85,centermouse,4,centersquare,0,323,452832938,70,141,171,during,0,-1,10.65813828,#FF00AA,-1,190.6581383,#0000FF,0,0,0,0,4,648,10.65813828,190.6581383,190.6581383,10.65813828,100.6581383,280.6581383,280.6581383,100.6581383,NA,5.9579439252336454658px,268.5490196078430926718px,151.0588235294117396279px,404.9287057,119.158878504672912868px,13594.391999999999825377px,7.068054321,5.9579439252336454658px,42.1110713074716898063px,421.1107130747168980633px,42.1110713074716898063px,4.5,NA,NA,FF,0
2637,1,1,10,6.2.1,26-08-20,21:14:22,452832938,17909613,experiment,96,centermouse,4,centersquare,0,296,452832938,80,128,196,during,0,-1,26.59035409,#00A9FF,-1,206.5903541,#00FFA9,0,0,0,0,3,953,26.59035409,206.5903541,206.5903541,26.59035409,116.5903541,296.5903541,296.5903541,116.5903541,NA,5.9579439252336454658px,268.5490196078430926718px,151.0588235294117396279px,404.9287057,119.158878504672912868px,13594.391999999999825377px,7.068054321,5.9579439252336454658px,42.1110713074716898063px,421.1107130747168980633px,42.1110713074716898063px,4.5,NA,NA,FF,0
2639,1,1,10,6.2.1,26-08-20,21:14:22,452832938,17909613,experiment,98,centermouse,4,centersquare,0,348,452832938,82,83,175,during,0,-1,7.954132794,#AAFF00,-1,187.9541328,#FF0000,0,0,0,0,4,799,7.954132794,187.9541328,187.9541328,7.954132794,97.95413279,277.9541328,277.9541328,97.95413279,NA,5.9579439252336454658px,268.5490196078430926718px,151.0588235294117396279px,404.9287057,119.158878504672912868px,13594.391999999999825377px,7.068054321,5.9579439252336454658px,42.1110713074716898063px,421.1107130747168980633px,42.1110713074716898063px,4.5,NA,NA,FF,0
2641,1,1,10,6.2.1,26-08-20,21:14:22,452832938,17909613,experiment,100,centermouse,4,centersquare,0,310,452832938,84,146,145,during,0,-1,7.098795589,#00FF00,-1,187.0987956,#AAFF00,0,0,0,0,1,743,7.098795589,187.0987956,187.0987956,7.098795589,97.09879559,277.0987956,277.0987956,97.09879559,NA,5.9579439252336454658px,268.5490196078430926718px,151.0588235294117396279px,404.9287057,119.158878504672912868px,13594.391999999999825377px,7.068054321,5.9579439252336454658px,42.1110713074716898063px,421.1107130747168980633px,42.1110713074716898063px,4.5,NA,NA,FF,0
2642,1,1,10,6.2.1,26-08-20,21:14:22,452832938,17909613,experiment,101,centermouse,4,centersquare,0,374,452832938,85,3,71,during,0,-1,28.94441494,#AAFF00,-1,208.9444149,#0000FF,0,0,0,0,4,758,28.94441494,208.9444149,208.9444149,28.94441494,118.9444149,298.9444149,298.9444149,118.9444149,NA,5.9579439252336454658px,268.5490196078430926718px,151.0588235294117396279px,404.9287057,119.158878504672912868px,13594.391999999999825377px,7.068054321,5.9579439252336454658px,42.1110713074716898063px,421.1107130747168980633px,42.1110713074716898063px,4.5,NA,NA,FF,0
2646,1,1,10,6.2.1,26-08-20,21:14:22,452832938,17909613,experiment,105,centermouse,4,centersquare,0,281,452832938,88,189,27,during,0,-1,-13.40032874,#FF0000,-1,166.5996713,#FF00AA,0,0,0,0,3,1029,-13.40032874,166.5996713,166.5996713,-13.40032874,76.59967126,256.5996713,256.5996713,76.59967126,NA,5.9579439252336454658px,268.5490196078430926718px,151.0588235294117396279px,404.9287057,119.158878504672912868px,13594.391999999999825377px,7.068054321,5.9579439252336454658px,42.1110713074716898063px,421.1107130747168980633px,42.1110713074716898063px,4.5,NA,NA,FF,0
2650,1,1,10,6.2.1,26-08-20,21:14:22,452832938,17909613,experiment,109,centermouse,4,centersquare,0,485,452832938,91,143,46,during,0,-1,20.15566963,#FF0000,-1,200.1556696,#AAFF00,0,0,0,0,6,880,20.15566963,200.1556696,200.1556696,20.15566963,110.1556696,290.1556696,290.1556696,110.1556696,NA,5.9579439252336454658px,268.5490196078430926718px,151.0588235294117396279px,404.9287057,119.158878504672912868px,13594.391999999999825377px,7.068054321,5.9579439252336454658px,42.1110713074716898063px,421.1107130747168980633px,42.1110713074716898063px,4.5,NA,NA,FF,0
2651,1,1,10,6.2.1,26-08-20,21:14:22,452832938,17909613,experiment,110,centermouse,4,centersquare,0,316,452832938,92,7,8,during,0,-1,5.271796429,#FF0000,-1,185.2717964,#00FFA9,0,0,0,0,2,963,5.271796429,185.2717964,185.2717964,5.271796429,95.27179643,275.2717964,275.2717964,95.27179643,NA,5.9579439252336454658px,268.5490196078430926718px,151.0588235294117396279px,404.9287057,119.158878504672912868px,13594.391999999999825377px,7.068054321,5.9579439252336454658px,42.1110713074716898063px,421.1107130747168980633px,42.1110713074716898063px,4.5,NA,NA,FF,0
2654,1,1,10,6.2.1,26-08-20,21:14:22,452832938,17909613,experiment,113,centermouse,4,centersquare,0,409,452832938,95,62,82,during,0,-1,19.97974009,#00FFA9,-1,199.9797401,#00FFA9,0,0,0,0,0,594,19.97974009,199.9797401,199.9797401,19.97974009,109.9797401,289.9797401,289.9797401,109.9797401,NA,5.9579439252336454658px,268.5490196078430926718px,151.0588235294117396279px,404.9287057,119.158878504672912868px,13594.391999999999825377px,7.068054321,5.9579439252336454658px,42.1110713074716898063px,421.1107130747168980633px,42.1110713074716898063px,4.5,NA,NA,FF,0
2658,1,1,10,6.2.1,26-08-20,21:14:22,452832938,17909613,experiment,117,centermouse,4,centersquare,0,727,452832938,98,156,114,during,0,-1,5.724137164,#0000FF,-1,185.7241372,#AAFF00,0,0,0,0,6,559,5.724137164,185.7241372,185.7241372,5.724137164,95.72413716,275.7241372,275.7241372,95.72413716,NA,5.9579439252336454658px,268.5490196078430926718px,151.0588235294117396279px,404.9287057,119.158878504672912868px,13594.391999999999825377px,7.068054321,5.9579439252336454658px,42.1110713074716898063px,421.1107130747168980633px,42.1110713074716898063px,4.5,NA,NA,FF,0
2659,1,1,10,6.2.1,26-08-20,21:14:22,452832938,17909613,experiment,118,centermouse,4,centersquare,0,408,452832938,99,78,89,during,0,-1,-2.499647693,#AA00FF,-1,177.5003523,#FF0000,0,0,0,0,4,1109,-2.499647693,177.5003523,177.5003523,-2.499647693,87.50035231,267.5003523,267.5003523,87.50035231,NA,5.9579439252336454658px,268.5490196078430926718px,151.0588235294117396279px,404.9287057,119.158878504672912868px,13594.391999999999825377px,7.068054321,5.9579439252336454658px,42.1110713074716898063px,421.1107130747168980633px,42.1110713074716898063px,4.5,NA,NA,FF,0
2662,1,1,10,6.2.1,26-08-20,21:14:22,452832938,17909613,experiment,121,centermouse,4,centersquare,0,340,452832938,102,149,41,during,0,-1,-12.86894698,#FFAA00,-1,167.131053,#00FFA9,0,0,0,0,5,598,-12.86894698,167.131053,167.131053,-12.86894698,77.13105302,257.131053,257.131053,77.13105302,NA,5.9579439252336454658px,268.5490196078430926718px,151.0588235294117396279px,404.9287057,119.158878504672912868px,13594.391999999999825377px,7.068054321,5.9579439252336454658px,42.1110713074716898063px,421.1107130747168980633px,42.1110713074716898063px,4.5,NA,NA,FF,0
2664,1,1,10,6.2.1,26-08-20,21:14:22,452832938,17909613,experiment,123,centermouse,4,centersquare,0,400,452832938,104,28,65,during,0,-1,-22.66555797,#00FF00,-1,157.334442,#FFAA00,0,0,0,0,6,810,-22.66555797,157.334442,157.334442,-22.66555797,67.33444203,247.334442,247.334442,67.33444203,NA,5.9579439252336454658px,268.5490196078430926718px,151.0588235294117396279px,404.9287057,119.158878504672912868px,13594.391999999999825377px,7.068054321,5.9579439252336454658px,42.1110713074716898063px,421.1107130747168980633px,42.1110713074716898063px,4.5,NA,NA,FF,0
2667,1,1,10,6.2.1,26-08-20,21:14:22,452832938,17909613,experiment,126,centermouse,4,centersquare,0,297,452832938,107,231,98,during,0,-1,-23.51177225,#FFAA00,-1,156.4882277,#FF00AA,0,0,0,0,5,777,-23.51177225,156.4882277,156.4882277,-23.51177225,66.48822775,246.4882277,246.4882277,66.48822775,NA,5.9579439252336454658px,268.5490196078430926718px,151.0588235294117396279px,404.9287057,119.158878504672912868px,13594.391999999999825377px,7.068054321,5.9579439252336454658px,42.1110713074716898063px,421.1107130747168980633px,42.1110713074716898063px,4.5,NA,NA,FF,0
2669,1,1,10,6.2.1,26-08-20,21:14:22,452832938,17909613,experiment,128,centermouse,4,centersquare,0,374,452832938,109,19,194,during,0,-1,-16.92010148,#FFAA00,-1,163.0798985,#FFAA00,0,0,0,0,0,583,-16.92010148,163.0798985,163.0798985,-16.92010148,73.07989852,253.0798985,253.0798985,73.07989852,NA,5.9579439252336454658px,268.5490196078430926718px,151.0588235294117396279px,404.9287057,119.158878504672912868px,13594.391999999999825377px,7.068054321,5.9579439252336454658px,42.1110713074716898063px,421.1107130747168980633px,42.1110713074716898063px,4.5,NA,NA,FF,0
2673,1,1,10,6.2.1,26-08-20,21:14:22,452832938,17909613,experiment,132,centermouse,4,centersquare,0,551,452832938,112,117,168,during,0,-1,-8.737638388,#0000FF,-1,171.2623616,#00A9FF,0,0,0,0,1,907,-8.737638388,171.2623616,171.2623616,-8.737638388,81.26236161,261.2623616,261.2623616,81.26236161,NA,5.9579439252336454658px,268.5490196078430926718px,151.0588235294117396279px,404.9287057,119.158878504672912868px,13594.391999999999825377px,7.068054321,5.9579439252336454658px,42.1110713074716898063px,421.1107130747168980633px,42.1110713074716898063px,4.5,NA,NA,FF,0
2674,1,1,10,6.2.1,26-08-20,21:14:22,452832938,17909613,experiment,133,centermouse,4,centersquare,0,320,452832938,113,42,124,during,0,-1,-5.188474892,#0000FF,-1,174.8115251,#FFAA00,0,0,0,0,6,650,-5.188474892,174.8115251,174.8115251,-5.188474892,84.81152511,264.8115251,264.8115251,84.81152511,NA,5.9579439252336454658px,268.5490196078430926718px,151.0588235294117396279px,404.9287057,119.158878504672912868px,13594.391999999999825377px,7.068054321,5.9579439252336454658px,42.1110713074716898063px,421.1107130747168980633px,42.1110713074716898063px,4.5,NA,NA,FF,0
2675,1,1,10,6.2.1,26-08-20,21:14:22,452832938,17909613,experiment,134,centermouse,4,centersquare,0,404,452832938,114,193,129,during,0,-1,-3.953089918,#FF0000,-1,176.0469101,#FF0000,0,0,0,0,0,597,-3.953089918,176.0469101,176.0469101,-3.953089918,86.04691008,266.0469101,266.0469101,86.04691008,NA,5.9579439252336454658px,268.5490196078430926718px,151.0588235294117396279px,404.9287057,119.158878504672912868px,13594.391999999999825377px,7.068054321,5.9579439252336454658px,42.1110713074716898063px,421.1107130747168980633px,42.1110713074716898063px,4.5,NA,NA,FF,0
2677,1,1,10,6.2.1,26-08-20,21:14:22,452832938,17909613,experiment,136,centermouse,4,centersquare,0,370,452832938,116,29,179,during,0,-1,5.11470477,#FFAA00,-1,185.1147048,#AA00FF,0,0,0,0,5,1219,5.11470477,185.1147048,185.1147048,5.11470477,95.11470477,275.1147048,275.1147048,95.11470477,NA,5.9579439252336454658px,268.5490196078430926718px,151.0588235294117396279px,404.9287057,119.158878504672912868px,13594.391999999999825377px,7.068054321,5.9579439252336454658px,42.1110713074716898063px,421.1107130747168980633px,42.1110713074716898063px,4.5,NA,NA,FF,0
2679,1,1,10,6.2.1,26-08-20,21:14:22,452832938,17909613,experiment,138,centermouse,4,centersquare,0,328,452832938,118,186,162,during,0,-1,14.51792689,#00A9FF,-1,194.5179269,#FFAA00,0,0,0,0,3,813,14.51792689,194.5179269,194.5179269,14.51792689,104.5179269,284.5179269,284.5179269,104.5179269,NA,5.9579439252336454658px,268.5490196078430926718px,151.0588235294117396279px,404.9287057,119.158878504672912868px,13594.391999999999825377px,7.068054321,5.9579439252336454658px,42.1110713074716898063px,421.1107130747168980633px,42.1110713074716898063px,4.5,NA,NA,FF,0
2689,1,1,10,6.2.1,26-08-20,21:14:22,452832938,17909613,experiment,148,centermouse,4,centersquare,0,391,452832938,128,9,70,during,0,-1,24.00788437,#AAFF00,-1,204.0078844,#00A9FF,0,0,0,0,6,641,24.00788437,204.0078844,204.0078844,24.00788437,114.0078844,294.0078844,294.0078844,114.0078844,NA,5.9579439252336454658px,268.5490196078430926718px,151.0588235294117396279px,404.9287057,119.158878504672912868px,13594.391999999999825377px,7.068054321,5.9579439252336454658px,42.1110713074716898063px,421.1107130747168980633px,42.1110713074716898063px,4.5,NA,NA,FF,0
2690,1,1,10,6.2.1,26-08-20,21:14:22,452832938,17909613,experiment,149,centermouse,4,centersquare,0,410,452832938,129,209,134,during,0,-1,17.88394913,#FF00AA,-1,197.8839491,#FF00AA,0,0,0,0,0,594,17.88394913,197.8839491,197.8839491,17.88394913,107.8839491,287.8839491,287.8839491,107.8839491,NA,5.9579439252336454658px,268.5490196078430926718px,151.0588235294117396279px,404.9287057,119.158878504672912868px,13594.391999999999825377px,7.068054321,5.9579439252336454658px,42.1110713074716898063px,421.1107130747168980633px,42.1110713074716898063px,4.5,NA,NA,FF,0
2691,1,1,10,6.2.1,26-08-20,21:14:22,452832938,17909613,experiment,150,centermouse,4,centersquare,0,350,452832938,130,153,146,during,0,-1,-20.70235534,#0000FF,-1,159.2976447,#FF00AA,0,0,0,0,5,1075,-20.70235534,159.2976447,159.2976447,-20.70235534,69.29764466,249.2976447,249.2976447,69.29764466,NA,5.9579439252336454658px,268.5490196078430926718px,151.0588235294117396279px,404.9287057,119.158878504672912868px,13594.391999999999825377px,7.068054321,5.9579439252336454658px,42.1110713074716898063px,421.1107130747168980633px,42.1110713074716898063px,4.5,NA,NA,FF,0
2692,1,1,10,6.2.1,26-08-20,21:14:22,452832938,17909613,experiment,151,centermouse,4,centersquare,0,339,452832938,131,126,112,during,0,-1,-10.73852566,#00A9FF,-1,169.2614743,#AA00FF,0,0,0,0,4,539,-10.73852566,169.2614743,169.2614743,-10.73852566,79.26147434,259.2614743,259.2614743,79.26147434,NA,5.9579439252336454658px,268.5490196078430926718px,151.0588235294117396279px,404.9287057,119.158878504672912868px,13594.391999999999825377px,7.068054321,5.9579439252336454658px,42.1110713074716898063px,421.1107130747168980633px,42.1110713074716898063px,4.5,NA,NA,FF,0
2694,1,1,10,6.2.1,26-08-20,21:14:22,452832938,17909613,experiment,153,centermouse,4,centersquare,0,408,452832938,133,200,92,during,0,-1,2.190851688,#0000FF,-1,182.1908517,#0000FF,0,0,0,0,0,677,2.190851688,182.1908517,182.1908517,2.190851688,92.19085169,272.1908517,272.1908517,92.19085169,NA,5.9579439252336454658px,268.5490196078430926718px,151.0588235294117396279px,404.9287057,119.158878504672912868px,13594.391999999999825377px,7.068054321,5.9579439252336454658px,42.1110713074716898063px,421.1107130747168980633px,42.1110713074716898063px,4.5,NA,NA,FF,0
2702,1,1,10,6.2.1,26-08-20,21:14:22,452832938,17909613,experiment,161,centermouse,4,centersquare,0,308,452832938,141,237,212,during,0,-1,-3.884187167,#00FFA9,-1,176.1158128,#00A9FF,0,0,0,0,4,1079,-3.884187167,176.1158128,176.1158128,-3.884187167,86.11581283,266.1158128,266.1158128,86.11581283,NA,5.9579439252336454658px,268.5490196078430926718px,151.0588235294117396279px,404.9287057,119.158878504672912868px,13594.391999999999825377px,7.068054321,5.9579439252336454658px,42.1110713074716898063px,421.1107130747168980633px,42.1110713074716898063px,4.5,NA,NA,FF,0
2706,1,1,10,6.2.1,26-08-20,21:14:22,452832938,17909613,experiment,165,centermouse,4,centersquare,0,319,452832938,145,250,97,during,0,-1,-21.84812317,#AA00FF,-1,158.1518768,#00A9FF,0,0,0,0,4,692,-21.84812317,158.1518768,158.1518768,-21.84812317,68.15187683,248.1518768,248.1518768,68.15187683,NA,5.9579439252336454658px,268.5490196078430926718px,151.0588235294117396279px,404.9287057,119.158878504672912868px,13594.391999999999825377px,7.068054321,5.9579439252336454658px,42.1110713074716898063px,421.1107130747168980633px,42.1110713074716898063px,4.5,NA,NA,FF,0
2709,1,1,10,6.2.1,26-08-20,21:14:22,452832938,17909613,experiment,168,centermouse,4,centersquare,0,294,452832938,148,57,87,during,0,-1,-6.203381348,#AAFF00,-1,173.7966187,#AA00FF,0,0,0,0,5,741,-6.203381348,173.7966187,173.7966187,-6.203381348,83.79661865,263.7966187,263.7966187,83.79661865,NA,5.9579439252336454658px,268.5490196078430926718px,151.0588235294117396279px,404.9287057,119.158878504672912868px,13594.391999999999825377px,7.068054321,5.9579439252336454658px,42.1110713074716898063px,421.1107130747168980633px,42.1110713074716898063px,4.5,NA,NA,FF,0
2712,1,1,10,6.2.1,26-08-20,21:14:22,452832938,17909613,experiment,171,centermouse,4,centersquare,0,292,452832938,151,17,52,during,0,-1,21.0544583,#FF00AA,-1,201.0544583,#FFAA00,0,0,0,0,5,680,21.0544583,201.0544583,201.0544583,21.0544583,111.0544583,291.0544583,291.0544583,111.0544583,NA,5.9579439252336454658px,268.5490196078430926718px,151.0588235294117396279px,404.9287057,119.158878504672912868px,13594.391999999999825377px,7.068054321,5.9579439252336454658px,42.1110713074716898063px,421.1107130747168980633px,42.1110713074716898063px,4.5,NA,NA,FF,0
2713,1,1,10,6.2.1,26-08-20,21:14:22,452832938,17909613,experiment,172,centermouse,4,centersquare,0,299,452832938,152,142,47,during,0,-1,-25.96748368,#00FFA9,-1,154.0325163,#AA00FF,0,0,0,0,5,562,-25.96748368,154.0325163,154.0325163,-25.96748368,64.03251632,244.0325163,244.0325163,64.03251632,NA,5.9579439252336454658px,268.5490196078430926718px,151.0588235294117396279px,404.9287057,119.158878504672912868px,13594.391999999999825377px,7.068054321,5.9579439252336454658px,42.1110713074716898063px,421.1107130747168980633px,42.1110713074716898063px,4.5,NA,NA,FF,0
2714,1,1,10,6.2.1,26-08-20,21:14:22,452832938,17909613,experiment,173,centermouse,4,centersquare,0,307,452832938,153,172,215,during,0,-1,-24.66469492,#00FF00,-1,155.3353051,#0000FF,0,0,0,0,4,553,-24.66469492,155.3353051,155.3353051,-24.66469492,65.33530508,245.3353051,245.3353051,65.33530508,NA,5.9579439252336454658px,268.5490196078430926718px,151.0588235294117396279px,404.9287057,119.158878504672912868px,13594.391999999999825377px,7.068054321,5.9579439252336454658px,42.1110713074716898063px,421.1107130747168980633px,42.1110713074716898063px,4.5,NA,NA,FF,0
2715,1,1,10,6.2.1,26-08-20,21:14:22,452832938,17909613,experiment,174,centermouse,4,centersquare,0,343,452832938,154,204,84,during,0,-1,7.664162139,#FF0000,-1,187.6641621,#AA00FF,0,0,0,0,6,2034,7.664162139,187.6641621,187.6641621,7.664162139,97.66416214,277.6641621,277.6641621,97.66416214,NA,5.9579439252336454658px,268.5490196078430926718px,151.0588235294117396279px,404.9287057,119.158878504672912868px,13594.391999999999825377px,7.068054321,5.9579439252336454658px,42.1110713074716898063px,421.1107130747168980633px,42.1110713074716898063px,4.5,NA,NA,FF,0
2718,1,1,10,6.2.1,26-08-20,21:14:22,452832938,17909613,experiment,177,centermouse,4,centersquare,0,268,452832938,157,247,177,during,0,-1,-22.06172786,#AA00FF,-1,157.9382721,#0000FF,0,0,0,0,3,532,-22.06172786,157.9382721,157.9382721,-22.06172786,67.93827214,247.9382721,247.9382721,67.93827214,NA,5.9579439252336454658px,268.5490196078430926718px,151.0588235294117396279px,404.9287057,119.158878504672912868px,13594.391999999999825377px,7.068054321,5.9579439252336454658px,42.1110713074716898063px,421.1107130747168980633px,42.1110713074716898063px,4.5,NA,NA,FF,0
2720,1,1,10,6.2.1,26-08-20,21:14:22,452832938,17909613,experiment,179,centermouse,4,centersquare,0,267,452832938,159,226,158,during,0,-1,-1.700259608,#FFAA00,-1,178.2997404,#FF0000,0,0,0,0,5,538,-1.700259608,178.2997404,178.2997404,-1.700259608,88.29974039,268.2997404,268.2997404,88.29974039,NA,5.9579439252336454658px,268.5490196078430926718px,151.0588235294117396279px,404.9287057,119.158878504672912868px,13594.391999999999825377px,7.068054321,5.9579439252336454658px,42.1110713074716898063px,421.1107130747168980633px,42.1110713074716898063px,4.5,NA,NA,FF,0
2721,1,1,10,6.2.1,26-08-20,21:14:22,452832938,17909613,experiment,180,centermouse,4,centersquare,0,290,452832938,160,236,180,during,0,-1,6.945115504,#00FF00,-1,186.9451155,#FF00AA,0,0,0,0,5,1002,6.945115504,186.9451155,186.9451155,6.945115504,96.9451155,276.9451155,276.9451155,96.9451155,NA,5.9579439252336454658px,268.5490196078430926718px,151.0588235294117396279px,404.9287057,119.158878504672912868px,13594.391999999999825377px,7.068054321,5.9579439252336454658px,42.1110713074716898063px,421.1107130747168980633px,42.1110713074716898063px,4.5,NA,NA,FF,0
2724,1,1,10,6.2.1,26-08-20,21:14:22,452832938,17909613,experiment,183,centermouse,4,centersquare,0,283,452832938,163,217,238,during,0,-1,-13.72560836,#00A9FF,-1,166.2743916,#FF00AA,0,0,0,0,4,737,-13.72560836,166.2743916,166.2743916,-13.72560836,76.27439164,256.2743916,256.2743916,76.27439164,NA,5.9579439252336454658px,268.5490196078430926718px,151.0588235294117396279px,404.9287057,119.158878504672912868px,13594.391999999999825377px,7.068054321,5.9579439252336454658px,42.1110713074716898063px,421.1107130747168980633px,42.1110713074716898063px,4.5,NA,NA,FF,0
2726,1,1,10,6.2.1,26-08-20,21:14:22,452832938,17909613,experiment,185,centermouse,4,centersquare,0,365,452832938,165,6,66,during,0,-1,-4.916571093,#00FF00,-1,175.0834289,#FF0000,0,0,0,0,6,1123,-4.916571093,175.0834289,175.0834289,-4.916571093,85.08342891,265.0834289,265.0834289,85.08342891,NA,5.9579439252336454658px,268.5490196078430926718px,151.0588235294117396279px,404.9287057,119.158878504672912868px,13594.391999999999825377px,7.068054321,5.9579439252336454658px,42.1110713074716898063px,421.1107130747168980633px,42.1110713074716898063px,4.5,NA,NA,FF,0
2728,1,1,10,6.2.1,26-08-20,21:14:22,452832938,17909613,experiment,187,centermouse,4,centersquare,0,406,452832938,167,40,67,during,0,-1,8.29487578,#00A9FF,-1,188.2948758,#00A9FF,0,0,0,0,0,583,8.29487578,188.2948758,188.2948758,8.29487578,98.29487578,278.2948758,278.2948758,98.29487578,NA,5.9579439252336454658px,268.5490196078430926718px,151.0588235294117396279px,404.9287057,119.158878504672912868px,13594.391999999999825377px,7.068054321,5.9579439252336454658px,42.1110713074716898063px,421.1107130747168980633px,42.1110713074716898063px,4.5,NA,NA,FF,0
2729,1,1,10,6.2.1,26-08-20,21:14:22,452832938,17909613,experiment,188,centermouse,4,centersquare,0,268,452832938,168,115,220,during,0,-1,13.10205821,#FF00AA,-1,193.1020582,#FF0000,0,0,0,0,5,729,13.10205821,193.1020582,193.1020582,13.10205821,103.1020582,283.1020582,283.1020582,103.1020582,NA,5.9579439252336454658px,268.5490196078430926718px,151.0588235294117396279px,404.9287057,119.158878504672912868px,13594.391999999999825377px,7.068054321,5.9579439252336454658px,42.1110713074716898063px,421.1107130747168980633px,42.1110713074716898063px,4.5,NA,NA,FF,0
2735,1,1,10,6.2.1,26-08-20,21:14:22,452832938,17909613,experiment,194,centermouse,4,centersquare,0,413,452832938,174,224,224,during,0,-1,-8.229147954,#AAFF00,-1,171.770852,#AAFF00,0,0,0,0,0,698,-8.229147954,171.770852,171.770852,-8.229147954,81.77085205,261.770852,261.770852,81.77085205,NA,5.9579439252336454658px,268.5490196078430926718px,151.0588235294117396279px,404.9287057,119.158878504672912868px,13594.391999999999825377px,7.068054321,5.9579439252336454658px,42.1110713074716898063px,421.1107130747168980633px,42.1110713074716898063px,4.5,NA,NA,FF,0
2748,1,1,10,6.2.1,26-08-20,21:14:22,452832938,17909613,experiment,207,centermouse,4,centersquare,0,307,452832938,185,50,133,during,0,-1,-23.93526364,#FF0000,-1,156.0647364,#00FF00,0,0,0,0,3,630,-23.93526364,156.0647364,156.0647364,-23.93526364,66.06473636,246.0647364,246.0647364,66.06473636,NA,5.9579439252336454658px,268.5490196078430926718px,151.0588235294117396279px,404.9287057,119.158878504672912868px,13594.391999999999825377px,7.068054321,5.9579439252336454658px,42.1110713074716898063px,421.1107130747168980633px,42.1110713074716898063px,4.5,NA,NA,FF,0
2750,1,1,10,6.2.1,26-08-20,21:14:22,452832938,17909613,experiment,209,centermouse,4,centersquare,0,271,452832938,187,207,40,during,0,-1,19.37917556,#AAFF00,-1,199.3791756,#00FF00,0,0,0,0,1,792,19.37917556,199.3791756,199.3791756,19.37917556,109.3791756,289.3791756,289.3791756,109.3791756,NA,5.9579439252336454658px,268.5490196078430926718px,151.0588235294117396279px,404.9287057,119.158878504672912868px,13594.391999999999825377px,7.068054321,5.9579439252336454658px,42.1110713074716898063px,421.1107130747168980633px,42.1110713074716898063px,4.5,NA,NA,FF,0
2751,1,1,10,6.2.1,26-08-20,21:14:22,452832938,17909613,experiment,210,centermouse,4,centersquare,0,285,452832938,188,159,119,during,0,-1,-21.62231453,#AAFF00,-1,158.3776855,#FFAA00,0,0,0,0,2,855,-21.62231453,158.3776855,158.3776855,-21.62231453,68.37768547,248.3776855,248.3776855,68.37768547,NA,5.9579439252336454658px,268.5490196078430926718px,151.0588235294117396279px,404.9287057,119.158878504672912868px,13594.391999999999825377px,7.068054321,5.9579439252336454658px,42.1110713074716898063px,421.1107130747168980633px,42.1110713074716898063px,4.5,NA,NA,FF,0
2752,1,1,10,6.2.1,26-08-20,21:14:22,452832938,17909613,experiment,211,centermouse,4,centersquare,0,225,452832938,189,71,100,during,0,-1,-0.598753493,#FF00AA,-1,179.4012465,#00FF00,0,0,0,0,4,587,-0.598753493,179.4012465,179.4012465,-0.598753493,89.40124651,269.4012465,269.4012465,89.40124651,NA,5.9579439252336454658px,268.5490196078430926718px,151.0588235294117396279px,404.9287057,119.158878504672912868px,13594.391999999999825377px,7.068054321,5.9579439252336454658px,42.1110713074716898063px,421.1107130747168980633px,42.1110713074716898063px,4.5,NA,NA,FF,0
2754,1,1,10,6.2.1,26-08-20,21:14:22,452832938,17909613,experiment,213,centermouse,4,centersquare,0,293,452832938,191,223,102,during,0,-1,-28.06595346,#00FF00,-1,151.9340465,#AA00FF,0,0,0,0,5,481,-28.06595346,151.9340465,151.9340465,-28.06595346,61.93404654,241.9340465,241.9340465,61.93404654,NA,5.9579439252336454658px,268.5490196078430926718px,151.0588235294117396279px,404.9287057,119.158878504672912868px,13594.391999999999825377px,7.068054321,5.9579439252336454658px,42.1110713074716898063px,421.1107130747168980633px,42.1110713074716898063px,4.5,NA,NA,FF,0
2755,1,1,10,6.2.1,26-08-20,21:14:22,452832938,17909613,experiment,214,centermouse,4,centersquare,0,272,452832938,192,5,7,during,0,-1,19.70534549,#00FFA9,-1,199.7053455,#00FF00,0,0,0,0,1,842,19.70534549,199.7053455,199.7053455,19.70534549,109.7053455,289.7053455,289.7053455,109.7053455,NA,5.9579439252336454658px,268.5490196078430926718px,151.0588235294117396279px,404.9287057,119.158878504672912868px,13594.391999999999825377px,7.068054321,5.9579439252336454658px,42.1110713074716898063px,421.1107130747168980633px,42.1110713074716898063px,4.5,NA,NA,FF,0
2766,1,1,10,6.2.1,26-08-20,21:14:22,452832938,17909613,experiment,225,centermouse,4,centersquare,0,271,452832938,203,202,140,during,0,-1,24.14369546,#0000FF,-1,204.1436955,#00FFA9,0,0,0,0,4,1075,24.14369546,204.1436955,204.1436955,24.14369546,114.1436955,294.1436955,294.1436955,114.1436955,NA,5.9579439252336454658px,268.5490196078430926718px,151.0588235294117396279px,404.9287057,119.158878504672912868px,13594.391999999999825377px,7.068054321,5.9579439252336454658px,42.1110713074716898063px,421.1107130747168980633px,42.1110713074716898063px,4.5,NA,NA,FF,0
2767,1,1,10,6.2.1,26-08-20,21:14:22,452832938,17909613,experiment,226,centermouse,4,centersquare,0,256,452832938,204,65,18,during,0,-1,-14.8393795,#00FFA9,-1,165.1606205,#FFAA00,0,0,0,0,5,584,-14.8393795,165.1606205,165.1606205,-14.8393795,75.1606205,255.1606205,255.1606205,75.1606205,NA,5.9579439252336454658px,268.5490196078430926718px,151.0588235294117396279px,404.9287057,119.158878504672912868px,13594.391999999999825377px,7.068054321,5.9579439252336454658px,42.1110713074716898063px,421.1107130747168980633px,42.1110713074716898063px,4.5,NA,NA,FF,0
2768,1,1,10,6.2.1,26-08-20,21:14:22,452832938,17909613,experiment,227,centermouse,4,centersquare,0,311,452832938,205,151,217,during,0,-1,6.063068778,#AAFF00,-1,186.0630688,#00FFA9,0,0,0,0,2,950,6.063068778,186.0630688,186.0630688,6.063068778,96.06306878,276.0630688,276.0630688,96.06306878,NA,5.9579439252336454658px,268.5490196078430926718px,151.0588235294117396279px,404.9287057,119.158878504672912868px,13594.391999999999825377px,7.068054321,5.9579439252336454658px,42.1110713074716898063px,421.1107130747168980633px,42.1110713074716898063px,4.5,NA,NA,FF,0
2769,1,1,10,6.2.1,26-08-20,21:14:22,452832938,17909613,experiment,228,centermouse,4,centersquare,0,311,452832938,206,229,228,during,0,-1,0.173866258,#00FFA9,-1,180.1738663,#FF0000,0,0,0,0,5,885,0.173866258,180.1738663,180.1738663,0.173866258,90.17386626,270.1738663,270.1738663,90.17386626,NA,5.9579439252336454658px,268.5490196078430926718px,151.0588235294117396279px,404.9287057,119.158878504672912868px,13594.391999999999825377px,7.068054321,5.9579439252336454658px,42.1110713074716898063px,421.1107130747168980633px,42.1110713074716898063px,4.5,NA,NA,FF,0
2780,1,1,10,6.2.1,26-08-20,21:14:22,452832938,17909613,experiment,239,centermouse,4,centersquare,0,327,452832938,217,205,185,during,0,-1,25.38245758,#00FFA9,-1,205.3824576,#FF00AA,0,0,0,0,4,859,25.38245758,205.3824576,205.3824576,25.38245758,115.3824576,295.3824576,295.3824576,115.3824576,NA,5.9579439252336454658px,268.5490196078430926718px,151.0588235294117396279px,404.9287057,119.158878504672912868px,13594.391999999999825377px,7.068054321,5.9579439252336454658px,42.1110713074716898063px,421.1107130747168980633px,42.1110713074716898063px,4.5,NA,NA,FF,0
2781,1,1,10,6.2.1,26-08-20,21:14:22,452832938,17909613,experiment,240,centermouse,4,centersquare,0,293,452832938,218,81,191,during,0,-1,22.65747453,#00A9FF,-1,202.6574745,#AAFF00,0,0,0,0,4,766,22.65747453,202.6574745,202.6574745,22.65747453,112.6574745,292.6574745,292.6574745,112.6574745,NA,5.9579439252336454658px,268.5490196078430926718px,151.0588235294117396279px,404.9287057,119.158878504672912868px,13594.391999999999825377px,7.068054321,5.9579439252336454658px,42.1110713074716898063px,421.1107130747168980633px,42.1110713074716898063px,4.5,NA,NA,FF,0
2792,1,1,10,6.2.1,26-08-20,21:14:22,452832938,17909613,experiment,251,centermouse,4,centersquare,0,303,452832938,228,79,192,during,0,-1,6.670264964,#AA00FF,-1,186.670265,#00FF00,0,0,0,0,5,567,6.670264964,186.670265,186.670265,6.670264964,96.67026496,276.670265,276.670265,96.67026496,NA,5.9579439252336454658px,268.5490196078430926718px,151.0588235294117396279px,404.9287057,119.158878504672912868px,13594.391999999999825377px,7.068054321,5.9579439252336454658px,42.1110713074716898063px,421.1107130747168980633px,42.1110713074716898063px,4.5,NA,NA,FF,0
2797,1,1,10,6.2.1,26-08-20,21:14:22,452832938,17909613,experiment,256,centermouse,4,centersquare,0,290,452832938,233,67,132,during,0,-1,6.355347837,#00A9FF,-1,186.3553478,#00FF00,0,0,0,0,3,795,6.355347837,186.3553478,186.3553478,6.355347837,96.35534784,276.3553478,276.3553478,96.35534784,NA,5.9579439252336454658px,268.5490196078430926718px,151.0588235294117396279px,404.9287057,119.158878504672912868px,13594.391999999999825377px,7.068054321,5.9579439252336454658px,42.1110713074716898063px,421.1107130747168980633px,42.1110713074716898063px,4.5,NA,NA,FF,0
2800,1,1,10,6.2.1,26-08-20,21:14:22,452832938,17909613,experiment,259,centermouse,4,centersquare,0,316,452832938,236,230,94,during,0,-1,-28.99452272,#AA00FF,-1,151.0054773,#FFAA00,0,0,0,0,3,621,-28.99452272,151.0054773,151.0054773,-28.99452272,61.00547728,241.0054773,241.0054773,61.00547728,NA,5.9579439252336454658px,268.5490196078430926718px,151.0588235294117396279px,404.9287057,119.158878504672912868px,13594.391999999999825377px,7.068054321,5.9579439252336454658px,42.1110713074716898063px,421.1107130747168980633px,42.1110713074716898063px,4.5,NA,NA,FF,0
2801,1,1,10,6.2.1,26-08-20,21:14:22,452832938,17909613,experiment,260,centermouse,4,centersquare,0,335,452832938,237,80,226,during,0,-1,0.972335155,#FF0000,-1,180.9723352,#0000FF,0,0,0,0,7,690,0.972335155,180.9723352,180.9723352,0.972335155,90.97233515,270.9723352,270.9723352,90.97233515,NA,5.9579439252336454658px,268.5490196078430926718px,151.0588235294117396279px,404.9287057,119.158878504672912868px,13594.391999999999825377px,7.068054321,5.9579439252336454658px,42.1110713074716898063px,421.1107130747168980633px,42.1110713074716898063px,4.5,NA,NA,FF,0
2803,1,1,10,6.2.1,26-08-20,21:14:22,452832938,17909613,experiment,262,centermouse,4,centersquare,0,286,452832938,239,173,143,during,0,-1,9.293736885,#FFAA00,-1,189.2937369,#00FF00,0,0,0,0,4,550,9.293736885,189.2937369,189.2937369,9.293736885,99.29373689,279.2937369,279.2937369,99.29373689,NA,5.9579439252336454658px,268.5490196078430926718px,151.0588235294117396279px,404.9287057,119.158878504672912868px,13594.391999999999825377px,7.068054321,5.9579439252336454658px,42.1110713074716898063px,421.1107130747168980633px,42.1110713074716898063px,4.5,NA,NA,FF,0
2805,1,1,10,6.2.1,26-08-20,21:14:22,452832938,17909613,experiment,264,centermouse,4,centersquare,0,280,452832938,241,73,26,during,0,-1,23.6773401,#AA00FF,-1,203.6773401,#00FFA9,0,0,0,0,5,583,23.6773401,203.6773401,203.6773401,23.6773401,113.6773401,293.6773401,293.6773401,113.6773401,NA,5.9579439252336454658px,268.5490196078430926718px,151.0588235294117396279px,404.9287057,119.158878504672912868px,13594.391999999999825377px,7.068054321,5.9579439252336454658px,42.1110713074716898063px,421.1107130747168980633px,42.1110713074716898063px,4.5,NA,NA,FF,0
2807,1,1,10,6.2.1,26-08-20,21:14:22,452832938,17909613,experiment,266,centermouse,4,centersquare,0,283,452832938,243,32,88,during,0,-1,18.08735087,#FFAA00,-1,198.0873509,#0000FF,0,0,0,0,3,579,18.08735087,198.0873509,198.0873509,18.08735087,108.0873509,288.0873509,288.0873509,108.0873509,NA,5.9579439252336454658px,268.5490196078430926718px,151.0588235294117396279px,404.9287057,119.158878504672912868px,13594.391999999999825377px,7.068054321,5.9579439252336454658px,42.1110713074716898063px,421.1107130747168980633px,42.1110713074716898063px,4.5,NA,NA,FF,0
2809,1,1,10,6.2.1,26-08-20,18:20:51,941912207,467417893,experiment,15,centermouse,4,centersquare,0,603,941912207,2,228,72,during,0,-1,-27.27162881,#AAFF00,-1,152.7283712,#FF00AA,0,0,0,0,7,1530,-27.27162881,152.7283712,152.7283712,-27.27162881,62.72837119,242.7283712,242.7283712,62.72837119,NA,4.4392523364485985127px,432.5052631578947170965px,243.2842105263157748141px,533.2483636,88.7850467289719631481px,13594.391999999999825377px,9.30788148,4.4392523364485985127px,41.3200346088783092569px,413.2003460887830783577px,41.3200346088783092569px,4.5,NA,NA,FF,0
2811,1,1,10,6.2.1,26-08-20,18:20:51,941912207,467417893,experiment,17,centermouse,4,centersquare,0,454,941912207,4,70,25,during,0,-1,24.43842756,#FF00AA,-1,204.4384276,#AA00FF,0,0,0,0,6,1268,24.43842756,204.4384276,204.4384276,24.43842756,114.4384276,294.4384276,294.4384276,114.4384276,NA,4.4392523364485985127px,432.5052631578947170965px,243.2842105263157748141px,533.2483636,88.7850467289719631481px,13594.391999999999825377px,9.30788148,4.4392523364485985127px,41.3200346088783092569px,413.2003460887830783577px,41.3200346088783092569px,4.5,NA,NA,FF,0
2813,1,1,10,6.2.1,26-08-20,18:20:51,941912207,467417893,experiment,19,centermouse,4,centersquare,0,389,941912207,6,237,53,during,0,-1,14.22730737,#AA00FF,-1,194.2273074,#FF00AA,0,0,0,0,6,1043,14.22730737,194.2273074,194.2273074,14.22730737,104.2273074,284.2273074,284.2273074,104.2273074,NA,4.4392523364485985127px,432.5052631578947170965px,243.2842105263157748141px,533.2483636,88.7850467289719631481px,13594.391999999999825377px,9.30788148,4.4392523364485985127px,41.3200346088783092569px,413.2003460887830783577px,41.3200346088783092569px,4.5,NA,NA,FF,0
2820,1,1,10,6.2.1,26-08-20,18:20:51,941912207,467417893,experiment,26,centermouse,4,centersquare,0,412,941912207,13,63,171,during,0,-1,25.5028124,#FF00AA,-1,205.5028124,#0000FF,0,0,0,0,6,671,25.5028124,205.5028124,205.5028124,25.5028124,115.5028124,295.5028124,295.5028124,115.5028124,NA,4.4392523364485985127px,432.5052631578947170965px,243.2842105263157748141px,533.2483636,88.7850467289719631481px,13594.391999999999825377px,9.30788148,4.4392523364485985127px,41.3200346088783092569px,413.2003460887830783577px,41.3200346088783092569px,4.5,NA,NA,FF,0
2822,1,1,10,6.2.1,26-08-20,18:20:51,941912207,467417893,experiment,28,centermouse,4,centersquare,0,360,941912207,15,76,87,during,0,-1,5.375441596,#AAFF00,-1,185.3754416,#AA00FF,0,0,0,0,6,930,5.375441596,185.3754416,185.3754416,5.375441596,95.3754416,275.3754416,275.3754416,95.3754416,NA,4.4392523364485985127px,432.5052631578947170965px,243.2842105263157748141px,533.2483636,88.7850467289719631481px,13594.391999999999825377px,9.30788148,4.4392523364485985127px,41.3200346088783092569px,413.2003460887830783577px,41.3200346088783092569px,4.5,NA,NA,FF,0
2823,1,1,10,6.2.1,26-08-20,18:20:51,941912207,467417893,experiment,29,centermouse,4,centersquare,0,352,941912207,16,107,119,during,0,-1,27.04967466,#AAFF00,-1,207.0496747,#FFAA00,0,0,0,0,4,1626,27.04967466,207.0496747,207.0496747,27.04967466,117.0496747,297.0496747,297.0496747,117.0496747,NA,4.4392523364485985127px,432.5052631578947170965px,243.2842105263157748141px,533.2483636,88.7850467289719631481px,13594.391999999999825377px,9.30788148,4.4392523364485985127px,41.3200346088783092569px,413.2003460887830783577px,41.3200346088783092569px,4.5,NA,NA,FF,0
2827,1,1,10,6.2.1,26-08-20,18:20:51,941912207,467417893,experiment,33,centermouse,4,centersquare,0,355,941912207,20,226,94,during,0,-1,20.15239604,#AA00FF,-1,200.152396,#FFAA00,0,0,0,0,6,863,20.15239604,200.152396,200.152396,20.15239604,110.152396,290.152396,290.152396,110.152396,NA,4.4392523364485985127px,432.5052631578947170965px,243.2842105263157748141px,533.2483636,88.7850467289719631481px,13594.391999999999825377px,9.30788148,4.4392523364485985127px,41.3200346088783092569px,413.2003460887830783577px,41.3200346088783092569px,4.5,NA,NA,FF,0
2829,1,1,10,6.2.1,26-08-20,18:20:51,941912207,467417893,experiment,35,centermouse,4,centersquare,0,395,941912207,22,43,132,during,0,-1,13.70162772,#00A9FF,-1,193.7016277,#00FF00,0,0,0,0,5,1149,13.70162772,193.7016277,193.7016277,13.70162772,103.7016277,283.7016277,283.7016277,103.7016277,NA,4.4392523364485985127px,432.5052631578947170965px,243.2842105263157748141px,533.2483636,88.7850467289719631481px,13594.391999999999825377px,9.30788148,4.4392523364485985127px,41.3200346088783092569px,413.2003460887830783577px,41.3200346088783092569px,4.5,NA,NA,FF,0
2831,1,1,10,6.2.1,26-08-20,18:20:51,941912207,467417893,experiment,37,centermouse,4,centersquare,0,476,941912207,24,71,133,during,0,-1,-3.917734519,#FF0000,-1,176.0822655,#00FF00,0,0,0,0,7,759,-3.917734519,176.0822655,176.0822655,-3.917734519,86.08226548,266.0822655,266.0822655,86.08226548,NA,4.4392523364485985127px,432.5052631578947170965px,243.2842105263157748141px,533.2483636,88.7850467289719631481px,13594.391999999999825377px,9.30788148,4.4392523364485985127px,41.3200346088783092569px,413.2003460887830783577px,41.3200346088783092569px,4.5,NA,NA,FF,0
2835,1,1,10,6.2.1,26-08-20,18:20:51,941912207,467417893,experiment,41,centermouse,4,centersquare,0,287,941912207,28,216,84,during,0,-1,-3.426492855,#FF0000,-1,176.5735071,#AA00FF,0,0,0,0,6,1028,-3.426492855,176.5735071,176.5735071,-3.426492855,86.57350714,266.5735071,266.5735071,86.57350714,NA,4.4392523364485985127px,432.5052631578947170965px,243.2842105263157748141px,533.2483636,88.7850467289719631481px,13594.391999999999825377px,9.30788148,4.4392523364485985127px,41.3200346088783092569px,413.2003460887830783577px,41.3200346088783092569px,4.5,NA,NA,FF,0
2842,1,1,10,6.2.1,26-08-20,18:20:51,941912207,467417893,experiment,48,centermouse,4,centersquare,0,563,941912207,35,32,82,during,0,-1,-22.2004095,#00FFA9,-1,157.7995905,#00FFA9,0,0,0,0,0,897,-22.2004095,157.7995905,157.7995905,-22.2004095,67.7995905,247.7995905,247.7995905,67.7995905,NA,4.4392523364485985127px,432.5052631578947170965px,243.2842105263157748141px,533.2483636,88.7850467289719631481px,13594.391999999999825377px,9.30788148,4.4392523364485985127px,41.3200346088783092569px,413.2003460887830783577px,41.3200346088783092569px,4.5,NA,NA,FF,0
2846,1,1,10,6.2.1,26-08-20,18:20:51,941912207,467417893,experiment,52,centermouse,4,centersquare,0,388,941912207,39,157,67,during,0,-1,-5.042163184,#00A9FF,-1,174.9578368,#00A9FF,0,0,0,0,0,602,-5.042163184,174.9578368,174.9578368,-5.042163184,84.95783682,264.9578368,264.9578368,84.95783682,NA,4.4392523364485985127px,432.5052631578947170965px,243.2842105263157748141px,533.2483636,88.7850467289719631481px,13594.391999999999825377px,9.30788148,4.4392523364485985127px,41.3200346088783092569px,413.2003460887830783577px,41.3200346088783092569px,4.5,NA,NA,FF,0
2849,1,1,10,6.2.1,26-08-20,18:20:51,941912207,467417893,experiment,55,centermouse,4,centersquare,0,333,941912207,42,120,41,during,0,-1,-18.54796116,#FFAA00,-1,161.4520388,#00FFA9,0,0,0,0,6,602,-18.54796116,161.4520388,161.4520388,-18.54796116,71.45203884,251.4520388,251.4520388,71.45203884,NA,4.4392523364485985127px,432.5052631578947170965px,243.2842105263157748141px,533.2483636,88.7850467289719631481px,13594.391999999999825377px,9.30788148,4.4392523364485985127px,41.3200346088783092569px,413.2003460887830783577px,41.3200346088783092569px,4.5,NA,NA,FF,0
2852,1,1,10,6.2.1,26-08-20,18:20:51,941912207,467417893,experiment,58,centermouse,4,centersquare,0,507,941912207,45,188,162,during,0,-1,-29.46678551,#00A9FF,-1,150.5332145,#FFAA00,0,0,0,0,6,670,-29.46678551,150.5332145,150.5332145,-29.46678551,60.53321449,240.5332145,240.5332145,60.53321449,NA,4.4392523364485985127px,432.5052631578947170965px,243.2842105263157748141px,533.2483636,88.7850467289719631481px,13594.391999999999825377px,9.30788148,4.4392523364485985127px,41.3200346088783092569px,413.2003460887830783577px,41.3200346088783092569px,4.5,NA,NA,FF,0
2854,1,1,10,6.2.1,26-08-20,18:20:51,941912207,467417893,experiment,60,centermouse,4,centersquare,0,272,941912207,47,248,238,during,0,-1,16.91320418,#00A9FF,-1,196.9132042,#FF00AA,0,0,0,0,6,565,16.91320418,196.9132042,196.9132042,16.91320418,106.9132042,286.9132042,286.9132042,106.9132042,NA,4.4392523364485985127px,432.5052631578947170965px,243.2842105263157748141px,533.2483636,88.7850467289719631481px,13594.391999999999825377px,9.30788148,4.4392523364485985127px,41.3200346088783092569px,413.2003460887830783577px,41.3200346088783092569px,4.5,NA,NA,FF,0
